Timestamp,q0,q1,q2,q3,gyroX,gyroY,gyroZ,accX,accY,accZ
1447550804242630000.00,0.01,-0.04,-0.24,0.97,-0.02,-0.04,0.11,0.91,0.23,9.74
1447550804262610000.00,0.01,-0.04,-0.24,0.97,-0.02,-0.03,0.11,0.90,0.22,9.72
1447550804282550000.00,0.01,-0.04,-0.24,0.97,-0.02,-0.03,0.10,0.94,0.21,9.74
1447550804302570000.00,0.01,-0.04,-0.24,0.97,-0.02,-0.04,0.10,0.94,0.22,9.77
1447550804322570000.00,0.01,-0.04,-0.24,0.97,-0.03,-0.04,0.10,0.95,0.20,9.76
1447550804342570000.00,0.01,-0.04,-0.24,0.97,-0.02,-0.03,0.09,0.95,0.18,9.74
1447550804362550000.00,0.01,-0.04,-0.24,0.97,-0.02,-0.03,0.09,0.96,0.21,9.77
1447550804382600000.00,0.01,-0.04,-0.24,0.97,-0.02,-0.03,0.08,0.96,0.23,9.76
1447550804402570000.00,0.01,-0.04,-0.24,0.97,-0.02,-0.02,0.09,0.95,0.21,9.80
1447550804422520000.00,0.01,-0.04,-0.24,0.97,-0.01,-0.01,0.08,0.95,0.20,9.80
1447550804442570000.00,0.01,-0.04,-0.24,0.97,-0.01,0.01,0.08,0.99,0.15,9.79
1447550804462530000.00,0.01,-0.04,-0.24,0.97,-0.01,0.01,0.08,1.02,0.17,9.79
1447550804482600000.00,0.01,-0.04,-0.24,0.97,-0.02,0.03,0.08,1.05,0.17,9.79
1447550804502520000.00,0.01,-0.04,-0.24,0.97,-0.02,0.03,0.08,1.12,0.16,9.77
1447550804522530000.00,0.01,-0.04,-0.24,0.97,-0.04,0.04,0.08,1.12,0.17,9.76
1447550804542600000.00,0.01,-0.04,-0.24,0.97,-0.04,0.05,0.08,1.15,0.16,9.76
1447550804562600000.00,0.01,-0.04,-0.24,0.97,-0.06,0.06,0.06,1.18,0.15,9.77
1447550804582550000.00,0.01,-0.04,-0.24,0.97,-0.07,0.06,0.05,1.18,0.12,9.77
1447550804602600000.00,0.00,-0.04,-0.24,0.97,-0.07,0.06,0.04,1.15,0.10,9.74
1447550804622560000.00,0.00,-0.04,-0.24,0.97,-0.08,0.07,0.04,1.14,0.06,9.74
1447550804642570000.00,0.00,-0.04,-0.24,0.97,-0.09,0.07,0.04,1.10,0.05,9.76
1447550804662600000.00,0.00,-0.04,-0.24,0.97,-0.10,0.07,0.04,1.07,0.03,9.73
1447550804682530000.00,0.00,-0.04,-0.24,0.97,-0.09,0.08,0.04,1.04,0.03,9.75
1447550804702540000.00,0.00,-0.04,-0.24,0.97,-0.09,0.09,0.03,0.97,0.00,9.74
1447550804722590000.00,0.00,-0.04,-0.24,0.97,-0.08,0.09,0.03,0.90,-0.01,9.74
1447550804742540000.00,0.00,-0.04,-0.24,0.97,-0.07,0.10,0.03,0.86,-0.02,9.74
1447550804762570000.00,0.00,-0.03,-0.24,0.97,-0.06,0.11,0.03,0.83,-0.06,9.77
1447550804782510000.00,0.00,-0.03,-0.24,0.97,-0.04,0.12,0.02,0.81,-0.07,9.76
1447550804802530000.00,0.00,-0.03,-0.24,0.97,-0.03,0.12,0.02,0.84,-0.10,9.77
1447550804822540000.00,0.00,-0.03,-0.24,0.97,-0.02,0.12,0.02,0.86,-0.10,9.75
1447550804842520000.00,0.00,-0.03,-0.24,0.97,0.00,0.13,0.01,0.87,-0.10,9.76
1447550804862580000.00,0.00,-0.03,-0.24,0.97,0.01,0.13,0.01,0.86,-0.09,9.76
1447550804882490000.00,0.00,-0.03,-0.24,0.97,0.02,0.12,0.01,0.83,-0.10,9.78
1447550804902540000.00,0.00,-0.03,-0.25,0.97,0.03,0.12,0.00,0.80,-0.09,9.76
1447550804922540000.00,0.00,-0.03,-0.25,0.97,0.04,0.12,0.01,0.80,-0.08,9.79
1447550804942540000.00,0.00,-0.02,-0.25,0.97,0.05,0.12,0.00,0.77,-0.08,9.79
1447550804962530000.00,0.00,-0.02,-0.25,0.97,0.06,0.11,0.00,0.73,-0.08,9.78
1447550804982490000.00,0.00,-0.02,-0.25,0.97,0.07,0.12,0.00,0.67,-0.07,9.78
1447550805002520000.00,0.00,-0.02,-0.25,0.97,0.08,0.13,-0.01,0.61,-0.05,9.80
1447550805022530000.00,0.00,-0.02,-0.25,0.97,0.09,0.13,-0.01,0.60,-0.06,9.78
1447550805042540000.00,0.01,-0.02,-0.25,0.97,0.08,0.13,-0.01,0.59,-0.05,9.76
1447550805062570000.00,0.01,-0.02,-0.25,0.97,0.10,0.13,-0.01,0.58,-0.04,9.77
1447550805082500000.00,0.01,-0.02,-0.25,0.97,0.09,0.14,0.00,0.58,-0.02,9.78
1447550805102560000.00,0.01,-0.02,-0.25,0.97,0.09,0.13,0.01,0.56,0.03,9.80
1447550805122540000.00,0.01,-0.02,-0.25,0.97,0.09,0.12,0.01,0.56,0.05,9.79
1447550805142520000.00,0.01,-0.01,-0.25,0.97,0.10,0.12,0.01,0.53,0.06,9.78
1447550805162540000.00,0.01,-0.01,-0.25,0.97,0.08,0.12,0.01,0.49,0.09,9.78
1447550805182510000.00,0.01,-0.01,-0.25,0.97,0.09,0.11,0.02,0.42,0.11,9.76
1447550805202570000.00,0.01,-0.01,-0.25,0.97,0.10,0.11,0.03,0.36,0.15,9.76
1447550805222530000.00,0.02,-0.01,-0.25,0.97,0.09,0.10,0.03,0.29,0.16,9.74
1447550805242520000.00,0.02,-0.01,-0.25,0.97,0.09,0.10,0.02,0.25,0.20,9.74
1447550805262560000.00,0.02,-0.01,-0.25,0.97,0.09,0.10,0.04,0.23,0.20,9.72
1447550805282510000.00,0.02,-0.01,-0.25,0.97,0.09,0.10,0.03,0.23,0.21,9.75
1447550805302560000.00,0.02,-0.01,-0.25,0.97,0.09,0.08,0.03,0.23,0.24,9.76
1447550805322550000.00,0.02,-0.01,-0.25,0.97,0.08,0.08,0.03,0.25,0.28,9.76
1447550805342540000.00,0.02,-0.01,-0.26,0.97,0.10,0.08,0.03,0.26,0.29,9.76
1447550805362560000.00,0.02,-0.01,-0.26,0.97,0.09,0.06,0.03,0.27,0.30,9.76
1447550805382510000.00,0.02,-0.01,-0.26,0.97,0.09,0.07,0.03,0.23,0.33,9.77
1447550805402540000.00,0.02,-0.01,-0.26,0.97,0.10,0.06,0.03,0.21,0.35,9.80
1447550805422530000.00,0.03,-0.01,-0.26,0.97,0.09,0.07,0.03,0.20,0.36,9.82
1447550805442520000.00,0.03,-0.01,-0.26,0.97,0.10,0.07,0.03,0.19,0.37,9.82
1447550805462540000.00,0.03,-0.01,-0.26,0.97,0.09,0.08,0.04,0.19,0.38,9.83
1447550805482500000.00,0.03,-0.01,-0.26,0.97,0.09,0.08,0.04,0.20,0.40,9.84
1447550805502560000.00,0.03,0.00,-0.26,0.97,0.08,0.07,0.04,0.17,0.42,9.83
1447550805522520000.00,0.03,0.00,-0.26,0.97,0.07,0.09,0.05,0.18,0.42,9.84
1447550805542480000.00,0.03,0.00,-0.26,0.97,0.07,0.09,0.04,0.17,0.44,9.82
1447550805562600000.00,0.03,0.00,-0.26,0.97,0.06,0.08,0.05,0.19,0.45,9.82
1447550805582510000.00,0.03,0.00,-0.26,0.97,0.05,0.08,0.05,0.19,0.44,9.80
1447550805602700000.00,0.03,0.00,-0.26,0.97,0.04,0.08,0.06,0.18,0.44,9.81
1447550805622520000.00,0.03,0.00,-0.26,0.97,0.02,0.06,0.06,0.15,0.45,9.80
1447550805642550000.00,0.03,0.00,-0.26,0.97,0.00,0.07,0.06,0.15,0.44,9.78
1447550805662600000.00,0.03,0.00,-0.26,0.97,-0.01,0.06,0.08,0.13,0.45,9.77
1447550805682720000.00,0.03,0.00,-0.26,0.97,-0.03,0.05,0.07,0.08,0.48,9.73
1447550805702540000.00,0.03,0.00,-0.26,0.97,-0.04,0.04,0.07,0.04,0.48,9.72
1447550805722680000.00,0.03,0.00,-0.26,0.97,-0.07,0.02,0.08,0.02,0.47,9.73
1447550805742650000.00,0.03,0.00,-0.26,0.97,-0.08,0.01,0.09,0.02,0.46,9.74
1447550805762730000.00,0.03,0.00,-0.26,0.97,-0.10,0.00,0.08,0.03,0.44,9.72
1447550805782650000.00,0.03,0.00,-0.26,0.97,-0.11,-0.02,0.08,0.06,0.42,9.73
1447550805802650000.00,0.03,0.00,-0.26,0.97,-0.11,-0.02,0.08,0.08,0.40,9.74
1447550805822650000.00,0.03,0.00,-0.26,0.97,-0.12,-0.04,0.08,0.11,0.40,9.78
1447550805842630000.00,0.03,0.00,-0.26,0.97,-0.12,-0.05,0.07,0.12,0.36,9.79
1447550805862690000.00,0.02,0.00,-0.26,0.97,-0.13,-0.04,0.08,0.16,0.33,9.83
1447550805882690000.00,0.02,0.00,-0.25,0.97,-0.12,-0.03,0.08,0.18,0.29,9.83
1447550805902660000.00,0.02,0.00,-0.25,0.97,-0.14,-0.04,0.08,0.18,0.26,9.85
1447550805922640000.00,0.02,0.00,-0.25,0.97,-0.14,-0.03,0.10,0.15,0.24,9.84
1447550805942630000.00,0.02,0.00,-0.25,0.97,-0.14,-0.01,0.09,0.13,0.22,9.86
1447550805962680000.00,0.02,0.00,-0.25,0.97,-0.14,-0.01,0.08,0.11,0.19,9.85
1447550805982730000.00,0.02,0.00,-0.25,0.97,-0.13,0.00,0.09,0.12,0.14,9.87
1447550806002670000.00,0.01,0.00,-0.25,0.97,-0.13,0.01,0.09,0.11,0.11,9.84
1447550806022670000.00,0.01,0.00,-0.25,0.97,-0.13,0.02,0.09,0.12,0.08,9.85
1447550806042630000.00,0.01,0.00,-0.25,0.97,-0.12,0.03,0.10,0.10,0.07,9.81
1447550806062720000.00,0.01,0.00,-0.25,0.97,-0.12,0.04,0.10,0.10,0.03,9.81
1447550806082720000.00,0.01,0.00,-0.25,0.97,-0.11,0.04,0.09,0.11,-0.01,9.82
1447550806102700000.00,0.01,0.00,-0.25,0.97,-0.11,0.05,0.09,0.12,-0.05,9.79
1447550806122660000.00,0.01,0.00,-0.25,0.97,-0.11,0.05,0.10,0.12,-0.07,9.75
1447550806142640000.00,0.01,0.00,-0.25,0.97,-0.09,0.05,0.10,0.13,-0.08,9.76
1447550806162690000.00,0.01,0.01,-0.25,0.97,-0.09,0.04,0.10,0.10,-0.09,9.73
1447550806182690000.00,0.01,0.01,-0.25,0.97,-0.08,0.04,0.10,0.09,-0.12,9.70
1447550806202690000.00,0.00,0.01,-0.25,0.97,-0.07,0.03,0.10,0.05,-0.14,9.70
1447550806222640000.00,0.00,0.01,-0.25,0.97,-0.06,0.02,0.10,-0.01,-0.17,9.67
1447550806242620000.00,0.00,0.01,-0.25,0.97,-0.05,0.02,0.10,-0.04,-0.17,9.69
1447550806262690000.00,0.00,0.01,-0.25,0.97,-0.05,0.01,0.09,-0.04,-0.17,9.68
1447550806282720000.00,0.00,0.01,-0.25,0.97,-0.03,0.01,0.09,-0.01,-0.18,9.73
1447550806302630000.00,0.00,0.01,-0.25,0.97,-0.02,-0.01,0.09,-0.01,-0.20,9.76
1447550806322680000.00,0.00,0.01,-0.25,0.97,-0.01,0.01,0.08,0.00,-0.20,9.80
1447550806342630000.00,0.00,0.01,-0.25,0.97,0.01,0.01,0.08,0.01,-0.20,9.85
1447550806362720000.00,0.00,0.01,-0.25,0.97,0.02,0.02,0.08,0.03,-0.20,9.84
1447550806382640000.00,0.00,0.01,-0.25,0.97,0.04,0.05,0.07,0.05,-0.20,9.84
1447550806402660000.00,0.00,0.01,-0.25,0.97,0.06,0.05,0.07,0.07,-0.22,9.82
1447550806422610000.00,0.00,0.01,-0.25,0.97,0.07,0.07,0.07,0.06,-0.17,9.83
1447550806442590000.00,0.00,0.01,-0.25,0.97,0.09,0.06,0.08,-0.01,-0.15,9.80
1447550806462650000.00,0.01,0.01,-0.25,0.97,0.10,0.07,0.06,-0.02,-0.15,9.79
1447550806482610000.00,0.01,0.01,-0.25,0.97,0.10,0.07,0.06,-0.05,-0.11,9.78
1447550806502600000.00,0.01,0.01,-0.25,0.97,0.12,0.08,0.06,-0.07,-0.09,9.75
1447550806522580000.00,0.01,0.01,-0.25,0.97,0.11,0.08,0.05,-0.11,-0.06,9.74
1447550806542600000.00,0.01,0.01,-0.25,0.97,0.11,0.07,0.05,-0.13,-0.05,9.77
1447550806562660000.00,0.01,0.01,-0.25,0.97,0.11,0.06,0.05,-0.14,-0.02,9.72
1447550806582610000.00,0.01,0.01,-0.25,0.97,0.10,0.06,0.04,-0.10,-0.02,9.70
1447550806602630000.00,0.01,0.01,-0.25,0.97,0.10,0.05,0.03,-0.06,0.01,9.69
1447550806622630000.00,0.01,0.01,-0.25,0.97,0.09,0.05,0.02,-0.05,0.03,9.71
1447550806642670000.00,0.02,0.01,-0.25,0.97,0.09,0.03,0.03,-0.02,0.04,9.76
1447550806662660000.00,0.02,0.01,-0.25,0.97,0.09,0.03,0.02,-0.05,0.06,9.77
1447550806682660000.00,0.02,0.01,-0.25,0.97,0.10,0.04,0.03,-0.09,0.08,9.80
1447550806702660000.00,0.02,0.01,-0.25,0.97,0.10,0.03,0.02,-0.12,0.11,9.79
1447550806722680000.00,0.02,0.01,-0.25,0.97,0.11,0.03,0.03,-0.15,0.14,9.77
1447550806742660000.00,0.02,0.01,-0.25,0.97,0.11,0.05,0.04,-0.23,0.17,9.77
1447550806762660000.00,0.02,0.01,-0.25,0.97,0.11,0.04,0.04,-0.27,0.18,9.80
1447550806782660000.00,0.02,0.01,-0.25,0.97,0.11,0.05,0.03,-0.25,0.19,9.82
1447550806802660000.00,0.02,0.01,-0.25,0.97,0.11,0.05,0.05,-0.20,0.20,9.82
1447550806822660000.00,0.03,0.01,-0.25,0.97,0.12,0.06,0.04,-0.16,0.22,9.82
1447550806842660000.00,0.03,0.01,-0.25,0.97,0.12,0.07,0.05,-0.10,0.24,9.84
1447550806862660000.00,0.03,0.01,-0.25,0.97,0.12,0.08,0.05,-0.07,0.28,9.84
1447550806882640000.00,0.03,0.01,-0.25,0.97,0.11,0.08,0.05,-0.05,0.32,9.84
1447550806902660000.00,0.03,0.01,-0.25,0.97,0.11,0.08,0.04,-0.02,0.32,9.81
1447550806922640000.00,0.03,0.01,-0.25,0.97,0.10,0.08,0.05,0.02,0.34,9.80
1447550806942660000.00,0.03,0.01,-0.25,0.97,0.10,0.08,0.05,-0.02,0.36,9.81
1447550806962660000.00,0.03,0.02,-0.25,0.97,0.08,0.08,0.05,-0.04,0.38,9.83
1447550806982660000.00,0.03,0.02,-0.25,0.97,0.07,0.08,0.04,-0.06,0.39,9.82
1447550807002640000.00,0.03,0.02,-0.25,0.97,0.06,0.08,0.04,-0.09,0.40,9.82
1447550807022660000.00,0.04,0.02,-0.25,0.97,0.04,0.08,0.03,-0.08,0.40,9.80
1447550807042660000.00,0.04,0.02,-0.25,0.97,0.03,0.08,0.03,-0.05,0.39,9.77
1447550807062660000.00,0.04,0.02,-0.25,0.97,0.01,0.07,0.03,-0.02,0.39,9.78
1447550807082660000.00,0.04,0.02,-0.25,0.97,-0.01,0.07,0.03,-0.02,0.39,9.80
1447550807102640000.00,0.04,0.02,-0.25,0.97,-0.04,0.06,0.03,-0.03,0.37,9.80
1447550807122660000.00,0.04,0.02,-0.25,0.97,-0.06,0.05,0.04,-0.03,0.37,9.81
1447550807142640000.00,0.03,0.02,-0.25,0.97,-0.09,0.05,0.04,-0.04,0.35,9.81
1447550807162640000.00,0.03,0.02,-0.25,0.97,-0.11,0.04,0.03,-0.08,0.33,9.82
1447550807182660000.00,0.03,0.02,-0.25,0.97,-0.13,0.04,0.05,-0.11,0.31,9.84
1447550807202660000.00,0.03,0.02,-0.25,0.97,-0.15,0.04,0.04,-0.13,0.30,9.85
1447550807222660000.00,0.03,0.02,-0.25,0.97,-0.16,0.05,0.04,-0.16,0.27,9.85
1447550807242700000.00,0.03,0.02,-0.25,0.97,-0.17,0.05,0.04,-0.20,0.24,9.82
1447550807262660000.00,0.03,0.02,-0.25,0.97,-0.18,0.05,0.05,-0.27,0.21,9.82
1447550807282660000.00,0.02,0.02,-0.25,0.97,-0.17,0.06,0.04,-0.34,0.18,9.84
1447550807302660000.00,0.02,0.03,-0.25,0.97,-0.17,0.04,0.04,-0.36,0.14,9.85
1447550807322660000.00,0.02,0.03,-0.25,0.97,-0.16,0.05,0.05,-0.36,0.10,9.84
1447550807342660000.00,0.02,0.03,-0.25,0.97,-0.15,0.06,0.05,-0.35,0.08,9.82
1447550807362660000.00,0.02,0.03,-0.25,0.97,-0.14,0.05,0.05,-0.32,0.05,9.85
1447550807382660000.00,0.02,0.03,-0.25,0.97,-0.14,0.06,0.05,-0.31,0.04,9.87
1447550807402650000.00,0.02,0.03,-0.25,0.97,-0.13,0.06,0.04,-0.29,-0.01,9.88
1447550807422650000.00,0.02,0.03,-0.25,0.97,-0.11,0.06,0.05,-0.29,-0.04,9.88
1447550807442680000.00,0.01,0.03,-0.25,0.97,-0.12,0.06,0.05,-0.28,-0.10,9.86
1447550807462660000.00,0.01,0.03,-0.25,0.97,-0.11,0.06,0.04,-0.28,-0.09,9.88
1447550807482660000.00,0.01,0.03,-0.25,0.97,-0.09,0.07,0.04,-0.32,-0.12,9.89
1447550807502660000.00,0.01,0.03,-0.25,0.97,-0.08,0.07,0.04,-0.35,-0.13,9.88
1447550807522660000.00,0.01,0.03,-0.25,0.97,-0.07,0.07,0.04,-0.37,-0.16,9.88
1447550807542670000.00,0.01,0.03,-0.26,0.97,-0.07,0.07,0.03,-0.41,-0.17,9.86
1447550807562680000.00,0.01,0.04,-0.26,0.97,-0.05,0.07,0.03,-0.44,-0.19,9.84
1447550807582680000.00,0.01,0.04,-0.26,0.97,-0.05,0.07,0.02,-0.45,-0.21,9.84
1447550807602680000.00,0.01,0.04,-0.26,0.97,-0.04,0.06,0.02,-0.46,-0.23,9.85
1447550807622680000.00,0.01,0.04,-0.26,0.97,-0.04,0.06,0.02,-0.46,-0.24,9.86
1447550807642690000.00,0.01,0.04,-0.26,0.97,-0.04,0.06,0.02,-0.48,-0.24,9.84
1447550807662680000.00,0.01,0.04,-0.26,0.97,-0.04,0.06,0.02,-0.47,-0.24,9.84
1447550807682680000.00,0.01,0.04,-0.26,0.97,-0.04,0.06,0.02,-0.47,-0.24,9.87
1447550807702680000.00,0.01,0.04,-0.26,0.97,-0.02,0.06,0.03,-0.50,-0.24,9.86
1447550807722640000.00,0.01,0.04,-0.26,0.97,-0.02,0.06,0.02,-0.53,-0.24,9.84
1447550807742680000.00,0.01,0.04,-0.26,0.97,-0.01,0.05,0.02,-0.57,-0.26,9.83
1447550807762680000.00,0.01,0.04,-0.26,0.97,-0.01,0.05,0.02,-0.61,-0.26,9.81
1447550807782680000.00,0.01,0.04,-0.26,0.96,-0.01,0.04,0.02,-0.66,-0.26,9.80
1447550807802680000.00,0.01,0.04,-0.26,0.96,0.01,0.05,0.02,-0.70,-0.27,9.80
1447550807822690000.00,0.01,0.04,-0.26,0.96,0.02,0.04,0.03,-0.72,-0.27,9.80
1447550807842680000.00,0.01,0.04,-0.26,0.96,0.02,0.03,0.03,-0.73,-0.27,9.80
1447550807862660000.00,0.01,0.04,-0.26,0.96,0.04,0.03,0.03,-0.71,-0.27,9.82
1447550807882660000.00,0.01,0.04,-0.26,0.96,0.04,0.03,0.04,-0.70,-0.28,9.81
1447550807902680000.00,0.01,0.04,-0.26,0.96,0.05,0.03,0.02,-0.67,-0.25,9.82
1447550807922660000.00,0.01,0.04,-0.26,0.96,0.05,0.02,0.03,-0.65,-0.25,9.82
1447550807942660000.00,0.01,0.04,-0.26,0.96,0.05,0.03,0.03,-0.62,-0.25,9.84
1447550807962680000.00,0.01,0.04,-0.26,0.96,0.06,0.04,0.03,-0.62,-0.25,9.84
1447550807982660000.00,0.01,0.04,-0.26,0.96,0.06,0.03,0.03,-0.62,-0.22,9.83
1447550808002690000.00,0.01,0.04,-0.26,0.96,0.07,0.03,0.03,-0.66,-0.20,9.83
1447550808022680000.00,0.01,0.04,-0.26,0.96,0.07,0.03,0.03,-0.71,-0.20,9.82
1447550808042680000.00,0.01,0.04,-0.26,0.96,0.07,0.03,0.04,-0.75,-0.19,9.82
1447550808062660000.00,0.01,0.04,-0.26,0.96,0.08,0.03,0.04,-0.79,-0.17,9.81
1447550808082680000.00,0.02,0.04,-0.26,0.96,0.07,0.04,0.03,-0.81,-0.16,9.79
1447550808102660000.00,0.02,0.04,-0.26,0.96,0.08,0.03,0.04,-0.80,-0.15,9.80
1447550808122680000.00,0.02,0.04,-0.26,0.96,0.09,0.03,0.02,-0.78,-0.13,9.81
1447550808142810000.00,0.02,0.04,-0.26,0.96,0.09,0.03,0.04,-0.75,-0.13,9.81
1447550808162800000.00,0.02,0.04,-0.26,0.96,0.09,0.02,0.03,-0.73,-0.11,9.82
1447550808182820000.00,0.02,0.04,-0.26,0.96,0.09,0.03,0.03,-0.70,-0.09,9.82
1447550808202830000.00,0.02,0.04,-0.26,0.96,0.09,0.02,0.03,-0.67,-0.07,9.81
1447550808222800000.00,0.02,0.04,-0.27,0.96,0.08,0.01,0.03,-0.65,-0.05,9.81
1447550808242780000.00,0.02,0.04,-0.27,0.96,0.09,0.02,0.04,-0.63,-0.02,9.82
1447550808262800000.00,0.02,0.04,-0.27,0.96,0.09,0.02,0.03,-0.65,-0.02,9.81
1447550808282810000.00,0.02,0.04,-0.27,0.96,0.09,0.01,0.03,-0.67,0.01,9.81
1447550808302820000.00,0.02,0.04,-0.27,0.96,0.09,0.01,0.03,-0.69,0.02,9.79
1447550808322800000.00,0.03,0.04,-0.27,0.96,0.09,0.01,0.03,-0.71,0.03,9.79
1447550808342800000.00,0.03,0.04,-0.27,0.96,0.10,0.01,0.03,-0.74,0.04,9.78
1447550808362800000.00,0.03,0.04,-0.27,0.96,0.10,-0.01,0.02,-0.76,0.04,9.78
1447550808382800000.00,0.03,0.04,-0.27,0.96,0.10,0.00,0.02,-0.74,0.05,9.78
1447550808402790000.00,0.03,0.04,-0.27,0.96,0.10,-0.01,0.01,-0.71,0.07,9.80
1447550808422810000.00,0.03,0.04,-0.27,0.96,0.09,0.00,0.02,-0.69,0.08,9.80
1447550808442800000.00,0.03,0.04,-0.27,0.96,0.10,0.01,0.01,-0.66,0.10,9.81
1447550808462800000.00,0.03,0.04,-0.27,0.96,0.09,0.00,0.00,-0.63,0.12,9.82
1447550808482790000.00,0.03,0.04,-0.27,0.96,0.08,0.00,0.00,-0.62,0.13,9.82
1447550808502800000.00,0.03,0.04,-0.27,0.96,0.08,0.00,0.00,-0.60,0.15,9.81
1447550808522800000.00,0.03,0.04,-0.27,0.96,0.07,0.02,0.01,-0.62,0.17,9.81
1447550808542800000.00,0.03,0.04,-0.27,0.96,0.07,0.01,0.00,-0.65,0.18,9.80
1447550808562800000.00,0.04,0.04,-0.27,0.96,0.06,0.01,0.00,-0.67,0.20,9.80
1447550808582770000.00,0.04,0.04,-0.27,0.96,0.05,0.01,0.00,-0.70,0.20,9.79
1447550808602800000.00,0.04,0.04,-0.27,0.96,0.05,0.01,0.00,-0.72,0.22,9.80
1447550808622770000.00,0.04,0.04,-0.27,0.96,0.05,0.01,0.00,-0.75,0.21,9.80
1447550808642800000.00,0.04,0.04,-0.27,0.96,0.04,0.02,0.01,-0.76,0.22,9.80
1447550808662800000.00,0.04,0.04,-0.27,0.96,0.03,0.03,0.00,-0.76,0.23,9.80
1447550808682790000.00,0.04,0.04,-0.28,0.96,0.02,0.03,0.00,-0.74,0.24,9.79
1447550808702800000.00,0.04,0.04,-0.28,0.96,0.01,0.03,0.01,-0.73,0.24,9.80
1447550808722760000.00,0.04,0.04,-0.28,0.96,0.00,0.03,0.01,-0.71,0.24,9.79
1447550808742800000.00,0.04,0.04,-0.28,0.96,-0.01,0.03,0.02,-0.70,0.24,9.80
1447550808762790000.00,0.04,0.04,-0.28,0.96,-0.03,0.03,0.02,-0.67,0.24,9.80
1447550808782800000.00,0.04,0.04,-0.28,0.96,-0.04,0.03,0.04,-0.67,0.23,9.80
1447550808802800000.00,0.04,0.04,-0.28,0.96,-0.05,0.03,0.04,-0.67,0.25,9.82
1447550808822820000.00,0.04,0.04,-0.28,0.96,-0.06,0.03,0.04,-0.69,0.22,9.81
1447550808842800000.00,0.03,0.04,-0.28,0.96,-0.07,0.03,0.05,-0.73,0.22,9.82
1447550808862770000.00,0.03,0.04,-0.28,0.96,-0.08,0.02,0.05,-0.77,0.20,9.81
1447550808882820000.00,0.03,0.04,-0.28,0.96,-0.08,0.04,0.05,-0.79,0.18,9.81
1447550808902800000.00,0.03,0.04,-0.28,0.96,-0.09,0.04,0.06,-0.79,0.17,9.81
1447550808922790000.00,0.03,0.04,-0.28,0.96,-0.08,0.03,0.05,-0.80,0.15,9.81
1447550808942790000.00,0.03,0.04,-0.28,0.96,-0.08,0.03,0.05,-0.82,0.13,9.80
1447550808962800000.00,0.03,0.04,-0.28,0.96,-0.09,0.03,0.05,-0.79,0.13,9.81
1447550808982780000.00,0.03,0.04,-0.28,0.96,-0.08,0.02,0.05,-0.79,0.10,9.79
1447550809002770000.00,0.03,0.05,-0.28,0.96,-0.07,0.03,0.04,-0.77,0.10,9.80
1447550809022800000.00,0.03,0.05,-0.28,0.96,-0.07,0.03,0.04,-0.75,0.10,9.79
1447550809042790000.00,0.03,0.05,-0.28,0.96,-0.06,0.01,0.03,-0.74,0.08,9.79
1447550809062790000.00,0.03,0.05,-0.28,0.96,-0.06,0.01,0.01,-0.75,0.07,9.78
1447550809082800000.00,0.03,0.05,-0.28,0.96,-0.06,0.00,0.01,-0.76,0.05,9.77
1447550809102790000.00,0.03,0.05,-0.28,0.96,-0.05,0.00,0.01,-0.80,0.03,9.77
1447550809122790000.00,0.03,0.05,-0.28,0.96,-0.04,-0.01,-0.01,-0.81,0.03,9.76
1447550809142750000.00,0.03,0.05,-0.28,0.96,-0.05,0.00,-0.02,-0.86,0.02,9.76
1447550809162750000.00,0.02,0.05,-0.28,0.96,-0.04,-0.01,-0.02,-0.87,0.01,9.78
1447550809182810000.00,0.02,0.05,-0.28,0.96,-0.03,-0.01,-0.03,-0.88,-0.01,9.77
1447550809202800000.00,0.02,0.05,-0.28,0.96,-0.02,-0.01,-0.04,-0.87,-0.02,9.80
1447550809222830000.00,0.02,0.05,-0.28,0.96,-0.02,-0.01,-0.05,-0.83,-0.04,9.80
1447550809242810000.00,0.02,0.05,-0.28,0.96,-0.02,-0.01,-0.05,-0.81,-0.05,9.79
1447550809262780000.00,0.02,0.05,-0.28,0.96,-0.01,-0.01,-0.06,-0.76,-0.06,9.80
1447550809282810000.00,0.02,0.05,-0.29,0.96,-0.01,-0.01,-0.06,-0.73,-0.08,9.77
1447550809302780000.00,0.02,0.05,-0.29,0.96,-0.01,-0.01,-0.06,-0.69,-0.08,9.79
1447550809322780000.00,0.02,0.05,-0.29,0.96,-0.01,0.00,-0.07,-0.70,-0.10,9.80
1447550809342810000.00,0.02,0.05,-0.29,0.96,-0.01,-0.02,-0.06,-0.69,-0.09,9.79
1447550809362790000.00,0.02,0.04,-0.29,0.96,-0.01,-0.03,-0.05,-0.69,-0.08,9.79
1447550809382780000.00,0.02,0.04,-0.29,0.96,-0.02,-0.02,-0.05,-0.70,-0.09,9.79
1447550809402780000.00,0.02,0.04,-0.29,0.95,-0.03,-0.02,-0.05,-0.71,-0.11,9.80
1447550809422750000.00,0.02,0.04,-0.29,0.95,-0.03,-0.02,-0.03,-0.72,-0.11,9.81
1447550809442810000.00,0.02,0.04,-0.29,0.95,-0.02,-0.01,-0.02,-0.72,-0.09,9.82
1447550809462780000.00,0.02,0.04,-0.29,0.95,-0.03,-0.02,-0.01,-0.71,-0.09,9.82
1447550809482770000.00,0.02,0.04,-0.30,0.95,-0.03,0.00,0.01,-0.69,-0.08,9.82
1447550809502780000.00,0.02,0.04,-0.30,0.95,-0.02,0.00,0.01,-0.66,-0.07,9.82
1447550809522780000.00,0.02,0.04,-0.30,0.95,-0.01,0.01,0.03,-0.65,-0.05,9.85
1447550809542810000.00,0.02,0.04,-0.30,0.95,0.00,0.01,0.04,-0.66,-0.07,9.85
1447550809562780000.00,0.02,0.04,-0.30,0.95,0.00,0.01,0.05,-0.68,-0.06,9.84
1447550809582780000.00,0.02,0.04,-0.30,0.95,0.01,0.02,0.07,-0.70,-0.06,9.82
1447550809602750000.00,0.02,0.04,-0.30,0.95,0.01,0.03,0.09,-0.68,-0.03,9.81
1447550809622770000.00,0.02,0.04,-0.29,0.95,0.01,0.03,0.10,-0.67,-0.04,9.79
1447550809642810000.00,0.02,0.04,-0.29,0.95,0.02,0.03,0.12,-0.66,-0.04,9.81
1447550809662770000.00,0.02,0.04,-0.29,0.95,0.01,0.03,0.13,-0.66,-0.04,9.81
1447550809682790000.00,0.02,0.04,-0.29,0.95,0.02,0.03,0.13,-0.64,-0.04,9.79
1447550809702740000.00,0.02,0.05,-0.29,0.96,0.01,0.02,0.16,-0.63,-0.06,9.77
1447550809722740000.00,0.02,0.05,-0.29,0.96,0.01,0.02,0.17,-0.63,-0.07,9.77
1447550809742830000.00,0.02,0.05,-0.29,0.96,-0.02,0.01,0.18,-0.63,-0.07,9.76
1447550809762760000.00,0.02,0.05,-0.29,0.96,-0.03,0.01,0.20,-0.66,-0.10,9.76
1447550809782760000.00,0.02,0.05,-0.29,0.96,-0.03,0.00,0.22,-0.66,-0.12,9.76
1447550809802700000.00,0.02,0.05,-0.28,0.96,-0.05,-0.01,0.25,-0.67,-0.13,9.75
1447550809822780000.00,0.02,0.05,-0.28,0.96,-0.07,-0.01,0.28,-0.64,-0.13,9.76
1447550809842800000.00,0.02,0.04,-0.28,0.96,-0.08,-0.02,0.29,-0.62,-0.13,9.76
1447550809862810000.00,0.02,0.04,-0.28,0.96,-0.10,-0.02,0.32,-0.62,-0.14,9.77
1447550809882820000.00,0.02,0.04,-0.28,0.96,-0.12,-0.02,0.33,-0.64,-0.16,9.76
1447550809902820000.00,0.02,0.04,-0.27,0.96,-0.13,-0.04,0.35,-0.67,-0.20,9.78
1447550809922700000.00,0.01,0.04,-0.27,0.96,-0.14,-0.03,0.38,-0.69,-0.21,9.77
1447550809942690000.00,0.01,0.04,-0.27,0.96,-0.14,-0.03,0.39,-0.71,-0.23,9.78
1447550809962720000.00,0.01,0.04,-0.26,0.96,-0.15,-0.03,0.41,-0.73,-0.26,9.78
1447550809982720000.00,0.01,0.04,-0.26,0.96,-0.15,-0.03,0.43,-0.75,-0.27,9.79
1447550810002690000.00,0.01,0.04,-0.25,0.97,-0.16,-0.03,0.45,-0.77,-0.30,9.79
1447550810022700000.00,0.01,0.04,-0.25,0.97,-0.17,-0.02,0.46,-0.78,-0.32,9.78
1447550810042720000.00,0.01,0.05,-0.25,0.97,-0.16,-0.02,0.47,-0.80,-0.30,9.79
1447550810062740000.00,0.00,0.05,-0.24,0.97,-0.17,-0.02,0.49,-0.80,-0.32,9.78
1447550810082740000.00,0.00,0.05,-0.24,0.97,-0.17,-0.02,0.49,-0.82,-0.33,9.79
1447550810102690000.00,0.00,0.05,-0.23,0.97,-0.17,-0.01,0.50,-0.80,-0.35,9.78
1447550810122740000.00,0.00,0.05,-0.23,0.97,-0.16,0.00,0.51,-0.77,-0.38,9.78
1447550810142740000.00,0.00,0.05,-0.22,0.97,-0.16,-0.01,0.52,-0.76,-0.38,9.79
1447550810162730000.00,0.00,0.05,-0.22,0.97,-0.15,0.00,0.53,-0.74,-0.38,9.79
1447550810182740000.00,0.00,0.05,-0.22,0.98,-0.14,0.01,0.54,-0.75,-0.41,9.76
1447550810202720000.00,-0.01,0.05,-0.21,0.98,-0.15,0.00,0.55,-0.75,-0.45,9.78
1447550810222730000.00,-0.01,0.05,-0.21,0.98,-0.14,0.01,0.57,-0.77,-0.48,9.75
1447550810242730000.00,-0.01,0.05,-0.20,0.98,-0.13,0.01,0.58,-0.81,-0.48,9.76
1447550810262740000.00,-0.01,0.05,-0.19,0.98,-0.12,0.00,0.61,-0.82,-0.48,9.76
1447550810282740000.00,-0.01,0.05,-0.19,0.98,-0.11,0.02,0.63,-0.84,-0.49,9.78
1447550810302690000.00,-0.01,0.05,-0.18,0.98,-0.08,0.02,0.64,-0.88,-0.49,9.77
1447550810322740000.00,-0.01,0.05,-0.18,0.98,-0.09,0.02,0.66,-0.90,-0.51,9.73
1447550810342730000.00,-0.01,0.05,-0.17,0.98,-0.08,0.03,0.67,-0.91,-0.49,9.74
1447550810362720000.00,-0.01,0.05,-0.16,0.98,-0.07,0.03,0.68,-0.94,-0.49,9.72
1447550810382730000.00,-0.01,0.05,-0.16,0.99,-0.06,0.03,0.70,-0.93,-0.49,9.72
1447550810402700000.00,-0.01,0.05,-0.15,0.99,-0.06,0.02,0.71,-0.93,-0.49,9.72
1447550810422880000.00,-0.01,0.05,-0.15,0.99,-0.05,0.03,0.72,-0.92,-0.49,9.70
1447550810442690000.00,-0.01,0.05,-0.14,0.99,-0.04,0.04,0.74,-0.89,-0.49,9.72
1447550810462700000.00,-0.01,0.05,-0.13,0.99,-0.05,0.03,0.75,-0.84,-0.50,9.72
1447550810482900000.00,-0.01,0.05,-0.12,0.99,-0.05,0.02,0.74,-0.76,-0.50,9.72
1447550810502760000.00,-0.01,0.05,-0.12,0.99,-0.06,0.01,0.75,-0.74,-0.48,9.73
1447550810522800000.00,-0.01,0.05,-0.11,0.99,-0.06,0.01,0.76,-0.72,-0.49,9.73
1447550810542900000.00,-0.01,0.05,-0.10,0.99,-0.07,0.01,0.76,-0.72,-0.51,9.71
1447550810562900000.00,-0.01,0.05,-0.10,0.99,-0.09,-0.01,0.76,-0.72,-0.53,9.70
1447550810582860000.00,-0.01,0.05,-0.09,0.99,-0.08,-0.01,0.76,-0.74,-0.57,9.67
1447550810602860000.00,-0.01,0.05,-0.08,0.99,-0.10,-0.02,0.76,-0.76,-0.59,9.71
1447550810622880000.00,-0.02,0.05,-0.08,1.00,-0.12,-0.04,0.77,-0.79,-0.63,9.68
1447550810642880000.00,-0.02,0.05,-0.07,1.00,-0.12,-0.05,0.78,-0.79,-0.67,9.70
1447550810662900000.00,-0.02,0.05,-0.06,1.00,-0.13,-0.06,0.78,-0.85,-0.67,9.71
1447550810682930000.00,-0.02,0.05,-0.05,1.00,-0.14,-0.06,0.77,-0.87,-0.70,9.68
1447550810702880000.00,-0.02,0.05,-0.05,1.00,-0.14,-0.07,0.76,-0.90,-0.70,9.67
1447550810722860000.00,-0.02,0.05,-0.04,1.00,-0.16,-0.08,0.76,-0.89,-0.72,9.70
1447550810742880000.00,-0.02,0.05,-0.03,1.00,-0.16,-0.09,0.74,-0.92,-0.75,9.69
1447550810762890000.00,-0.02,0.05,-0.03,1.00,-0.17,-0.09,0.74,-0.91,-0.78,9.69
1447550810782940000.00,-0.02,0.05,-0.02,1.00,-0.16,-0.09,0.73,-0.94,-0.82,9.67
1447550810802880000.00,-0.03,0.05,-0.01,1.00,-0.17,-0.10,0.71,-0.97,-0.85,9.67
1447550810822880000.00,-0.03,0.05,-0.01,1.00,-0.18,-0.12,0.71,-0.98,-0.91,9.66
1447550810842940000.00,-0.03,0.05,0.00,1.00,-0.18,-0.12,0.69,-0.99,-0.94,9.65
1447550810862940000.00,-0.03,0.05,0.00,1.00,-0.18,-0.12,0.69,-1.00,-0.97,9.64
1447550810882900000.00,-0.03,0.04,0.01,1.00,-0.19,-0.12,0.68,-0.96,-1.02,9.66
1447550810902860000.00,-0.03,0.04,0.02,1.00,-0.19,-0.13,0.68,-0.94,-1.06,9.67
1447550810922880000.00,-0.04,0.04,0.02,1.00,-0.20,-0.14,0.68,-0.91,-1.11,9.69
1447550810942930000.00,-0.04,0.04,0.03,1.00,-0.22,-0.13,0.67,-0.88,-1.14,9.69
1447550810962940000.00,-0.04,0.04,0.03,1.00,-0.21,-0.13,0.67,-0.86,-1.17,9.69
1447550810982910000.00,-0.04,0.04,0.04,1.00,-0.22,-0.14,0.68,-0.85,-1.19,9.70
1447550811002870000.00,-0.04,0.04,0.05,1.00,-0.20,-0.13,0.67,-0.85,-1.21,9.71
1447550811022880000.00,-0.05,0.04,0.05,1.00,-0.20,-0.12,0.69,-0.84,-1.27,9.72
1447550811042930000.00,-0.05,0.04,0.06,1.00,-0.20,-0.12,0.69,-0.84,-1.31,9.71
1447550811062940000.00,-0.05,0.04,0.06,1.00,-0.19,-0.11,0.69,-0.84,-1.35,9.70
1447550811082900000.00,-0.05,0.03,0.07,1.00,-0.18,-0.11,0.70,-0.84,-1.38,9.73
1447550811102870000.00,-0.05,0.03,0.08,1.00,-0.16,-0.10,0.70,-0.83,-1.42,9.75
1447550811122880000.00,-0.05,0.03,0.08,0.99,-0.15,-0.08,0.72,-0.82,-1.43,9.75
1447550811142900000.00,-0.05,0.03,0.09,0.99,-0.14,-0.07,0.72,-0.79,-1.44,9.76
1447550811162910000.00,-0.06,0.03,0.10,0.99,-0.12,-0.07,0.72,-0.77,-1.45,9.75
1447550811182940000.00,-0.06,0.03,0.10,0.99,-0.12,-0.06,0.72,-0.76,-1.46,9.73
1447550811202880000.00,-0.06,0.03,0.11,0.99,-0.10,-0.06,0.73,-0.76,-1.48,9.74
1447550811222880000.00,-0.06,0.03,0.11,0.99,-0.09,-0.05,0.75,-0.77,-1.49,9.73
1447550811242930000.00,-0.06,0.03,0.12,0.99,-0.08,-0.04,0.73,-0.77,-1.51,9.73
1447550811262940000.00,-0.06,0.03,0.13,0.99,-0.07,-0.04,0.74,-0.77,-1.49,9.73
1447550811282850000.00,-0.06,0.03,0.13,0.99,-0.05,-0.04,0.74,-0.78,-1.48,9.72
1447550811302870000.00,-0.06,0.03,0.14,0.99,-0.04,-0.03,0.74,-0.81,-1.48,9.72
1447550811322870000.00,-0.06,0.03,0.15,0.99,-0.03,-0.02,0.74,-0.81,-1.48,9.71
1447550811342920000.00,-0.06,0.03,0.15,0.99,-0.01,-0.02,0.74,-0.82,-1.48,9.70
1447550811362930000.00,-0.06,0.03,0.16,0.98,0.00,-0.02,0.74,-0.86,-1.48,9.69
1447550811382850000.00,-0.06,0.03,0.17,0.98,-0.01,-0.02,0.73,-0.89,-1.47,9.70
1447550811402870000.00,-0.06,0.03,0.17,0.98,0.00,-0.03,0.74,-0.89,-1.49,9.68
1447550811422870000.00,-0.06,0.03,0.18,0.98,0.00,-0.01,0.74,-0.90,-1.48,9.68
1447550811442930000.00,-0.06,0.03,0.19,0.98,0.00,-0.01,0.74,-0.92,-1.45,9.68
1447550811462930000.00,-0.06,0.03,0.19,0.98,0.00,-0.02,0.73,-0.93,-1.44,9.68
1447550811482840000.00,-0.06,0.03,0.20,0.98,0.00,-0.01,0.75,-0.95,-1.43,9.69
1447550811502870000.00,-0.06,0.03,0.20,0.98,-0.01,-0.01,0.73,-0.94,-1.41,9.68
1447550811522870000.00,-0.06,0.04,0.21,0.98,0.01,-0.01,0.72,-0.97,-1.40,9.68
1447550811542930000.00,-0.06,0.04,0.22,0.97,0.01,-0.01,0.72,-1.00,-1.38,9.66
1447550811562930000.00,-0.06,0.04,0.22,0.97,0.01,-0.01,0.72,-1.00,-1.37,9.66
1447550811582830000.00,-0.06,0.04,0.23,0.97,0.02,-0.01,0.71,-1.04,-1.33,9.65
1447550811602870000.00,-0.06,0.04,0.23,0.97,0.03,-0.02,0.70,-1.03,-1.33,9.65
1447550811622870000.00,-0.06,0.04,0.24,0.97,0.04,-0.02,0.69,-1.02,-1.31,9.63
1447550811642930000.00,-0.06,0.04,0.25,0.97,0.06,-0.04,0.68,-1.04,-1.30,9.64
1447550811662930000.00,-0.06,0.04,0.25,0.97,0.06,-0.04,0.66,-1.06,-1.30,9.65
1447550811682850000.00,-0.05,0.04,0.26,0.96,0.06,-0.05,0.65,-1.09,-1.27,9.66
1447550811702850000.00,-0.05,0.04,0.26,0.96,0.06,-0.04,0.64,-1.08,-1.24,9.68
1447550811722870000.00,-0.05,0.04,0.27,0.96,0.07,-0.03,0.63,-1.10,-1.24,9.65
1447550811742850000.00,-0.05,0.04,0.27,0.96,0.06,-0.04,0.62,-1.10,-1.20,9.65
1447550811762900000.00,-0.05,0.04,0.28,0.96,0.07,-0.04,0.60,-1.14,-1.18,9.64
1447550811782830000.00,-0.05,0.04,0.28,0.96,0.07,-0.05,0.60,-1.15,-1.16,9.67
1447550811802870000.00,-0.05,0.04,0.29,0.96,0.07,-0.05,0.57,-1.19,-1.13,9.65
1447550811822870000.00,-0.05,0.04,0.29,0.95,0.06,-0.05,0.57,-1.19,-1.11,9.66
1447550811842880000.00,-0.05,0.04,0.30,0.95,0.05,-0.06,0.55,-1.18,-1.10,9.63
1447550811862930000.00,-0.05,0.04,0.30,0.95,0.05,-0.06,0.55,-1.19,-1.09,9.64
1447550811882850000.00,-0.05,0.04,0.30,0.95,0.04,-0.07,0.54,-1.20,-1.07,9.63
1447550811902870000.00,-0.05,0.04,0.31,0.95,0.04,-0.07,0.53,-1.18,-1.06,9.66
1447550811922850000.00,-0.04,0.04,0.31,0.95,0.04,-0.06,0.52,-1.15,-1.05,9.67
1447550811942830000.00,-0.04,0.04,0.32,0.95,0.03,-0.07,0.51,-1.13,-1.04,9.66
1447550811962930000.00,-0.04,0.04,0.32,0.95,0.03,-0.08,0.50,-1.11,-0.99,9.66
1447550811982830000.00,-0.04,0.04,0.32,0.94,0.03,-0.09,0.49,-1.11,-0.98,9.70
1447550812002870000.00,-0.04,0.04,0.33,0.94,0.02,-0.08,0.48,-1.12,-0.97,9.71
1447550812022870000.00,-0.04,0.04,0.33,0.94,0.04,-0.09,0.46,-1.10,-0.94,9.72
1447550812042790000.00,-0.04,0.04,0.33,0.94,0.04,-0.09,0.45,-1.07,-0.93,9.71
1447550812062930000.00,-0.04,0.03,0.34,0.94,0.04,-0.09,0.44,-1.04,-0.93,9.70
1447550812082840000.00,-0.04,0.03,0.34,0.94,0.04,-0.09,0.43,-1.02,-0.93,9.72
1447550812102850000.00,-0.04,0.03,0.34,0.94,0.06,-0.09,0.42,-1.01,-0.91,9.73
1447550812122870000.00,-0.04,0.03,0.35,0.94,0.06,-0.09,0.41,-0.97,-0.88,9.75
1447550812142830000.00,-0.04,0.03,0.35,0.94,0.06,-0.09,0.39,-0.93,-0.89,9.75
1447550812162930000.00,-0.04,0.03,0.35,0.93,0.06,-0.09,0.38,-0.88,-0.87,9.76
1447550812182840000.00,-0.04,0.03,0.35,0.93,0.06,-0.10,0.37,-0.84,-0.89,9.75
1447550812202870000.00,-0.03,0.03,0.36,0.93,0.06,-0.09,0.36,-0.80,-0.86,9.77
1447550812222850000.00,-0.03,0.03,0.36,0.93,0.08,-0.10,0.34,-0.77,-0.85,9.76
1447550812242820000.00,-0.03,0.03,0.36,0.93,0.09,-0.10,0.33,-0.72,-0.83,9.78
1447550812262930000.00,-0.03,0.03,0.36,0.93,0.10,-0.12,0.32,-0.67,-0.81,9.77
1447550812282830000.00,-0.03,0.03,0.37,0.93,0.11,-0.12,0.30,-0.64,-0.81,9.78
1447550812302850000.00,-0.03,0.03,0.37,0.93,0.11,-0.12,0.30,-0.60,-0.79,9.80
1447550812322870000.00,-0.03,0.03,0.37,0.93,0.11,-0.13,0.28,-0.54,-0.77,9.80
1447550812342840000.00,-0.03,0.03,0.37,0.93,0.10,-0.13,0.27,-0.52,-0.72,9.83
1447550812362890000.00,-0.02,0.03,0.37,0.93,0.09,-0.13,0.28,-0.50,-0.70,9.81
1447550812382830000.00,-0.02,0.02,0.38,0.93,0.09,-0.14,0.26,-0.48,-0.66,9.80
1447550812402850000.00,-0.02,0.02,0.38,0.93,0.09,-0.14,0.25,-0.45,-0.63,9.81
1447550812422850000.00,-0.02,0.02,0.38,0.93,0.09,-0.14,0.24,-0.44,-0.60,9.81
1447550812442860000.00,-0.02,0.02,0.38,0.92,0.08,-0.14,0.23,-0.42,-0.56,9.79
1447550812462890000.00,-0.02,0.02,0.38,0.92,0.09,-0.13,0.22,-0.39,-0.54,9.78
1447550812483010000.00,-0.02,0.02,0.38,0.92,0.08,-0.14,0.20,-0.38,-0.53,9.78
1447550812502870000.00,-0.01,0.02,0.38,0.92,0.09,-0.13,0.21,-0.36,-0.53,9.77
1447550812522920000.00,-0.01,0.02,0.38,0.92,0.07,-0.13,0.20,-0.34,-0.51,9.78
1447550812542840000.00,-0.01,0.02,0.39,0.92,0.07,-0.13,0.19,-0.34,-0.48,9.78
1447550812562890000.00,-0.01,0.02,0.39,0.92,0.07,-0.13,0.19,-0.33,-0.46,9.77
1447550812582860000.00,-0.01,0.01,0.39,0.92,0.06,-0.12,0.17,-0.32,-0.42,9.76
1447550812602860000.00,-0.01,0.01,0.39,0.92,0.05,-0.12,0.17,-0.31,-0.41,9.73
1447550812622850000.00,-0.01,0.01,0.39,0.92,0.05,-0.11,0.16,-0.34,-0.39,9.69
1447550812642860000.00,-0.01,0.01,0.39,0.92,0.06,-0.11,0.15,-0.34,-0.36,9.67
1447550812662890000.00,-0.01,0.01,0.39,0.92,0.06,-0.12,0.13,-0.35,-0.36,9.65
1447550812682860000.00,-0.01,0.01,0.39,0.92,0.07,-0.12,0.12,-0.34,-0.33,9.66
1447550812702870000.00,0.00,0.01,0.39,0.92,0.09,-0.13,0.11,-0.34,-0.33,9.64
1447550812722920000.00,0.00,0.01,0.39,0.92,0.11,-0.13,0.10,-0.29,-0.30,9.69
1447550812742830000.00,0.00,0.01,0.39,0.92,0.14,-0.12,0.08,-0.27,-0.29,9.71
1447550812762920000.00,0.00,0.01,0.39,0.92,0.15,-0.11,0.07,-0.22,-0.26,9.73
1447550812782850000.00,0.00,0.01,0.39,0.92,0.18,-0.11,0.06,-0.16,-0.24,9.74
1447550812802860000.00,0.00,0.01,0.39,0.92,0.20,-0.10,0.06,-0.12,-0.22,9.73
1447550812822920000.00,0.01,0.01,0.39,0.92,0.20,-0.10,0.05,-0.09,-0.19,9.76
1447550812842840000.00,0.01,0.01,0.39,0.92,0.21,-0.09,0.05,-0.06,-0.16,9.77
1447550812862890000.00,0.01,0.01,0.39,0.92,0.19,-0.10,0.05,-0.02,-0.14,9.78
1447550812882990000.00,0.01,0.01,0.39,0.92,0.18,-0.08,0.06,0.00,-0.11,9.80
1447550812903000000.00,0.01,0.01,0.39,0.92,0.17,-0.08,0.07,0.02,-0.06,9.83
1447550812923020000.00,0.02,0.01,0.39,0.92,0.16,-0.07,0.07,0.04,-0.01,9.84
1447550812943010000.00,0.02,0.01,0.39,0.92,0.14,-0.07,0.08,0.06,0.02,9.83
1447550812962990000.00,0.02,0.01,0.39,0.92,0.13,-0.05,0.08,0.09,0.07,9.81
1447550812982970000.00,0.02,0.01,0.39,0.92,0.12,-0.06,0.07,0.10,0.09,9.81
1447550813002970000.00,0.02,0.01,0.39,0.92,0.12,-0.06,0.08,0.13,0.07,9.80
1447550813022950000.00,0.02,0.01,0.39,0.92,0.11,-0.06,0.08,0.18,0.06,9.71
1447550813042970000.00,0.02,0.01,0.39,0.92,0.12,-0.08,0.08,0.22,0.08,9.67
1447550813062970000.00,0.03,0.00,0.39,0.92,0.14,-0.10,0.09,0.27,0.11,9.69
1447550813082950000.00,0.03,0.00,0.39,0.92,0.16,-0.14,0.10,0.31,0.12,9.70
1447550813102970000.00,0.03,0.00,0.39,0.92,0.17,-0.16,0.10,0.35,0.16,9.72
1447550813122950000.00,0.03,0.00,0.39,0.92,0.19,-0.18,0.10,0.41,0.19,9.75
1447550813142940000.00,0.03,0.00,0.39,0.92,0.18,-0.21,0.12,0.46,0.22,9.74
1447550813162970000.00,0.04,0.00,0.39,0.92,0.18,-0.22,0.11,0.52,0.24,9.78
1447550813182970000.00,0.04,0.00,0.39,0.92,0.17,-0.24,0.13,0.51,0.24,9.80
1447550813202970000.00,0.04,0.00,0.39,0.92,0.16,-0.25,0.14,0.55,0.25,9.82
1447550813222970000.00,0.04,-0.01,0.39,0.92,0.16,-0.25,0.15,0.61,0.28,9.82
1447550813242970000.00,0.05,-0.01,0.39,0.92,0.13,-0.26,0.15,0.64,0.33,9.83
1447550813262950000.00,0.05,-0.01,0.39,0.92,0.14,-0.27,0.16,0.68,0.37,9.84
1447550813282950000.00,0.05,-0.01,0.39,0.92,0.11,-0.26,0.15,0.73,0.39,9.87
1447550813302970000.00,0.05,-0.01,0.39,0.92,0.10,-0.27,0.15,0.77,0.41,9.88
1447550813322970000.00,0.05,-0.02,0.39,0.92,0.09,-0.25,0.16,0.83,0.41,9.88
1447550813342960000.00,0.05,-0.02,0.40,0.92,0.08,-0.24,0.16,0.85,0.44,9.84
1447550813362970000.00,0.06,-0.02,0.40,0.92,0.08,-0.24,0.16,0.92,0.47,9.83
1447550813382970000.00,0.06,-0.02,0.40,0.92,0.08,-0.24,0.16,0.97,0.48,9.81
1447550813402970000.00,0.06,-0.03,0.40,0.92,0.07,-0.22,0.16,1.01,0.49,9.83
1447550813422970000.00,0.06,-0.03,0.40,0.91,0.07,-0.22,0.16,1.05,0.49,9.79
1447550813442960000.00,0.06,-0.03,0.40,0.91,0.07,-0.21,0.15,1.09,0.50,9.76
1447550813462960000.00,0.06,-0.03,0.40,0.91,0.06,-0.20,0.16,1.15,0.52,9.73
1447550813483000000.00,0.06,-0.03,0.40,0.91,0.07,-0.18,0.15,1.19,0.54,9.72
1447550813502950000.00,0.07,-0.03,0.40,0.91,0.06,-0.17,0.15,1.21,0.58,9.71
1447550813522940000.00,0.07,-0.04,0.40,0.91,0.05,-0.17,0.14,1.26,0.58,9.70
1447550813542950000.00,0.07,-0.04,0.40,0.91,0.05,-0.16,0.15,1.28,0.59,9.68
1447550813562950000.00,0.07,-0.04,0.40,0.91,0.05,-0.15,0.14,1.32,0.60,9.70
1447550813582960000.00,0.07,-0.04,0.40,0.91,0.04,-0.14,0.14,1.37,0.61,9.69
1447550813602960000.00,0.07,-0.04,0.40,0.91,0.05,-0.11,0.13,1.42,0.63,9.71
1447550813622960000.00,0.07,-0.04,0.40,0.91,0.05,-0.11,0.13,1.46,0.63,9.71
1447550813642960000.00,0.07,-0.04,0.40,0.91,0.05,-0.09,0.13,1.50,0.63,9.70
1447550813662960000.00,0.07,-0.04,0.41,0.91,0.04,-0.06,0.13,1.52,0.63,9.71
1447550813682960000.00,0.07,-0.04,0.41,0.91,0.04,-0.05,0.13,1.53,0.63,9.69
1447550813702970000.00,0.07,-0.04,0.41,0.91,0.02,-0.04,0.13,1.53,0.62,9.67
1447550813722960000.00,0.07,-0.04,0.41,0.91,0.01,-0.01,0.14,1.52,0.64,9.67
1447550813742960000.00,0.07,-0.04,0.41,0.91,0.00,0.00,0.14,1.55,0.70,9.69
1447550813762950000.00,0.07,-0.04,0.41,0.91,-0.01,0.02,0.13,1.58,0.72,9.69
1447550813782960000.00,0.07,-0.04,0.41,0.91,0.00,0.03,0.13,1.56,0.73,9.72
1447550813802960000.00,0.07,-0.04,0.41,0.91,-0.01,0.05,0.12,1.56,0.70,9.73
1447550813822950000.00,0.07,-0.04,0.41,0.91,0.00,0.07,0.11,1.56,0.68,9.73
1447550813842960000.00,0.07,-0.04,0.41,0.91,-0.01,0.08,0.12,1.61,0.66,9.73
1447550813862940000.00,0.07,-0.04,0.41,0.91,-0.02,0.09,0.11,1.64,0.67,9.72
1447550813882940000.00,0.07,-0.04,0.41,0.91,-0.03,0.11,0.12,1.64,0.66,9.75
1447550813902960000.00,0.07,-0.04,0.41,0.91,-0.02,0.11,0.12,1.62,0.68,9.76
1447550813922960000.00,0.07,-0.04,0.41,0.91,-0.03,0.12,0.12,1.60,0.69,9.76
1447550813942940000.00,0.07,-0.04,0.41,0.91,-0.02,0.13,0.12,1.55,0.69,9.77
1447550813962940000.00,0.07,-0.04,0.41,0.91,-0.02,0.13,0.12,1.50,0.68,9.77
1447550813982940000.00,0.06,-0.04,0.41,0.91,-0.03,0.14,0.12,1.48,0.65,9.77
1447550814002960000.00,0.06,-0.04,0.42,0.91,-0.03,0.15,0.12,1.43,0.63,9.74
1447550814022940000.00,0.06,-0.04,0.42,0.91,-0.03,0.14,0.12,1.41,0.60,9.74
1447550814042940000.00,0.06,-0.04,0.42,0.91,-0.04,0.13,0.13,1.42,0.59,9.77
1447550814062940000.00,0.06,-0.04,0.42,0.91,-0.06,0.13,0.13,1.41,0.55,9.75
1447550814082970000.00,0.06,-0.03,0.42,0.91,-0.07,0.11,0.14,1.40,0.56,9.77
1447550814102970000.00,0.06,-0.03,0.42,0.91,-0.08,0.11,0.15,1.35,0.55,9.76
1447550814122970000.00,0.06,-0.03,0.42,0.91,-0.09,0.10,0.14,1.31,0.55,9.75
1447550814142970000.00,0.06,-0.03,0.42,0.90,-0.11,0.09,0.15,1.25,0.51,9.79
1447550814162970000.00,0.05,-0.03,0.42,0.90,-0.11,0.07,0.14,1.21,0.45,9.75
1447550814183010000.00,0.05,-0.03,0.42,0.90,-0.12,0.05,0.13,1.14,0.41,9.76
1447550814203010000.00,0.05,-0.03,0.42,0.90,-0.12,0.05,0.13,1.11,0.40,9.74
1447550814223040000.00,0.05,-0.03,0.42,0.90,-0.13,0.04,0.12,1.07,0.36,9.72
1447550814243030000.00,0.05,-0.03,0.42,0.90,-0.14,0.03,0.11,1.04,0.33,9.74
1447550814263040000.00,0.05,-0.04,0.42,0.90,-0.14,0.02,0.11,1.02,0.27,9.74
1447550814283000000.00,0.04,-0.04,0.42,0.90,-0.14,0.01,0.09,1.02,0.24,9.76
1447550814303040000.00,0.04,-0.04,0.42,0.90,-0.14,0.01,0.09,1.03,0.20,9.75
1447550814323040000.00,0.04,-0.04,0.42,0.90,-0.14,0.01,0.07,1.00,0.20,9.75
1447550814343000000.00,0.04,-0.04,0.42,0.90,-0.15,0.01,0.07,1.00,0.13,9.76
1447550814363040000.00,0.04,-0.04,0.42,0.90,-0.14,0.02,0.05,0.98,0.11,9.78
1447550814382970000.00,0.04,-0.04,0.42,0.90,-0.14,0.03,0.05,1.00,0.08,9.79
1447550814403000000.00,0.04,-0.04,0.42,0.90,-0.14,0.02,0.04,1.02,0.07,9.78
1447550814423000000.00,0.03,-0.04,0.42,0.91,-0.13,0.02,0.03,1.02,0.04,9.77
1447550814443030000.00,0.03,-0.04,0.42,0.91,-0.11,0.03,0.02,1.04,0.01,9.80
1447550814463040000.00,0.03,-0.04,0.42,0.91,-0.10,0.04,0.01,1.04,-0.03,9.77
1447550814482960000.00,0.03,-0.04,0.42,0.91,-0.08,0.05,0.00,1.07,-0.04,9.80
1447550814503000000.00,0.03,-0.04,0.42,0.91,-0.09,0.06,0.01,1.08,-0.08,9.79
1447550814522970000.00,0.03,-0.04,0.42,0.91,-0.07,0.06,0.01,1.07,-0.06,9.82
1447550814543010000.00,0.03,-0.04,0.42,0.91,-0.06,0.08,0.01,1.07,-0.06,9.82
1447550814563000000.00,0.03,-0.04,0.42,0.91,-0.06,0.09,0.01,1.07,-0.06,9.81
1447550814582960000.00,0.03,-0.04,0.42,0.91,-0.05,0.09,0.02,1.03,-0.05,9.79
1447550814603000000.00,0.03,-0.04,0.42,0.91,-0.05,0.10,0.02,1.00,-0.06,9.78
1447550814623000000.00,0.02,-0.04,0.42,0.91,-0.04,0.10,0.03,0.92,-0.08,9.76
1447550814642970000.00,0.02,-0.04,0.42,0.91,-0.03,0.10,0.02,0.86,-0.07,9.76
1447550814663000000.00,0.02,-0.04,0.42,0.91,-0.01,0.11,0.02,0.83,-0.08,9.75
1447550814683000000.00,0.02,-0.03,0.41,0.91,0.00,0.12,0.02,0.79,-0.09,9.76
1447550814703000000.00,0.02,-0.03,0.41,0.91,0.03,0.11,0.02,0.80,-0.09,9.76
1447550814723000000.00,0.02,-0.03,0.41,0.91,0.04,0.11,0.02,0.79,-0.09,9.75
1447550814743000000.00,0.02,-0.03,0.41,0.91,0.06,0.11,0.03,0.81,-0.05,9.78
1447550814763000000.00,0.02,-0.03,0.41,0.91,0.07,0.11,0.02,0.83,-0.03,9.78
1447550814783040000.00,0.02,-0.03,0.41,0.91,0.08,0.11,0.03,0.85,0.00,9.80
1447550814802990000.00,0.02,-0.03,0.41,0.91,0.09,0.11,0.03,0.81,0.00,9.80
1447550814822990000.00,0.02,-0.03,0.41,0.91,0.10,0.12,0.03,0.78,0.03,9.83
1447550814843000000.00,0.02,-0.02,0.41,0.91,0.10,0.13,0.04,0.77,0.04,9.82
1447550814863000000.00,0.02,-0.02,0.41,0.91,0.10,0.12,0.04,0.72,0.05,9.83
1447550814883000000.00,0.02,-0.02,0.41,0.91,0.10,0.12,0.04,0.70,0.08,9.82
1447550814903000000.00,0.02,-0.02,0.41,0.91,0.10,0.12,0.05,0.68,0.09,9.81
1447550814923000000.00,0.02,-0.02,0.41,0.91,0.09,0.12,0.06,0.64,0.12,9.82
1447550814942960000.00,0.02,-0.02,0.41,0.91,0.09,0.13,0.05,0.62,0.14,9.82
1447550814963000000.00,0.03,-0.02,0.41,0.91,0.08,0.13,0.05,0.58,0.14,9.83
1447550814983000000.00,0.03,-0.01,0.41,0.91,0.07,0.14,0.06,0.55,0.16,9.82
1447550815003000000.00,0.03,-0.01,0.41,0.91,0.06,0.14,0.07,0.54,0.18,9.83
1447550815023030000.00,0.02,-0.01,0.41,0.91,0.05,0.14,0.07,0.52,0.17,9.84
1447550815043030000.00,0.02,-0.01,0.41,0.91,0.03,0.15,0.07,0.50,0.20,9.84
1447550815063030000.00,0.02,-0.01,0.41,0.91,0.01,0.15,0.08,0.47,0.19,9.84
1447550815083030000.00,0.02,-0.01,0.41,0.91,0.00,0.15,0.09,0.46,0.17,9.83
1447550815103000000.00,0.02,-0.01,0.41,0.91,-0.02,0.15,0.09,0.44,0.18,9.83
1447550815123000000.00,0.02,-0.01,0.41,0.91,-0.04,0.15,0.11,0.40,0.16,9.82
1447550815143000000.00,0.02,0.00,0.41,0.91,-0.07,0.16,0.12,0.35,0.16,9.85
1447550815163000000.00,0.02,0.00,0.41,0.91,-0.09,0.16,0.13,0.29,0.14,9.85
1447550815183000000.00,0.02,0.00,0.41,0.91,-0.11,0.17,0.14,0.24,0.12,9.85
1447550815203030000.00,0.02,0.00,0.41,0.91,-0.12,0.17,0.14,0.21,0.10,9.83
1447550815223030000.00,0.01,0.00,0.42,0.91,-0.14,0.17,0.13,0.17,0.09,9.81
1447550815243160000.00,0.01,0.00,0.42,0.91,-0.14,0.18,0.15,0.13,0.05,9.80
1447550815263030000.00,0.01,0.00,0.42,0.91,-0.14,0.17,0.15,0.13,0.00,9.79
1447550815283030000.00,0.01,0.00,0.42,0.91,-0.15,0.16,0.16,0.12,-0.05,9.79
1447550815303030000.00,0.00,0.00,0.42,0.91,-0.15,0.16,0.16,0.12,-0.09,9.79
1447550815323030000.00,0.00,0.00,0.42,0.91,-0.16,0.15,0.16,0.10,-0.11,9.80
1447550815343020000.00,0.00,0.00,0.42,0.91,-0.16,0.15,0.17,0.07,-0.15,9.78
1447550815363080000.00,0.00,0.00,0.42,0.91,-0.17,0.14,0.17,0.04,-0.18,9.79
1447550815383110000.00,0.00,0.00,0.42,0.91,-0.16,0.13,0.18,0.01,-0.22,9.79
1447550815403080000.00,-0.01,0.01,0.42,0.91,-0.17,0.13,0.18,-0.02,-0.25,9.78
1447550815423110000.00,-0.01,0.01,0.42,0.91,-0.16,0.11,0.19,-0.05,-0.27,9.77
1447550815443080000.00,-0.01,0.01,0.42,0.91,-0.16,0.12,0.18,-0.07,-0.29,9.77
1447550815463150000.00,-0.01,0.01,0.43,0.90,-0.16,0.10,0.19,-0.07,-0.34,9.76
1447550815483120000.00,-0.01,0.01,0.43,0.90,-0.15,0.10,0.18,-0.09,-0.37,9.77
1447550815503120000.00,-0.02,0.01,0.43,0.90,-0.15,0.09,0.18,-0.07,-0.41,9.77
1447550815523090000.00,-0.02,0.01,0.43,0.90,-0.13,0.08,0.19,-0.05,-0.45,9.75
1447550815543150000.00,-0.02,0.01,0.43,0.90,-0.13,0.06,0.19,-0.03,-0.46,9.77
1447550815563120000.00,-0.02,0.01,0.43,0.90,-0.12,0.05,0.19,-0.02,-0.48,9.77
1447550815583080000.00,-0.02,0.01,0.43,0.90,-0.11,0.05,0.19,-0.04,-0.49,9.79
1447550815603120000.00,-0.02,0.01,0.43,0.90,-0.10,0.04,0.17,-0.06,-0.52,9.78
1447550815623080000.00,-0.02,0.01,0.43,0.90,-0.08,0.03,0.19,-0.06,-0.53,9.79
1447550815643120000.00,-0.02,0.01,0.44,0.90,-0.08,0.02,0.17,-0.09,-0.54,9.80
1447550815663110000.00,-0.02,0.01,0.44,0.90,-0.06,0.01,0.17,-0.08,-0.56,9.80
1447550815683050000.00,-0.02,0.01,0.44,0.90,-0.05,0.01,0.16,-0.07,-0.58,9.80
1447550815703050000.00,-0.02,0.01,0.44,0.90,-0.04,0.01,0.15,-0.05,-0.59,9.80
1447550815723080000.00,-0.03,0.01,0.44,0.90,-0.02,-0.01,0.15,-0.06,-0.62,9.78
1447550815743130000.00,-0.03,0.00,0.44,0.90,-0.01,0.00,0.14,-0.09,-0.62,9.80
1447550815763110000.00,-0.03,0.00,0.44,0.90,0.00,-0.02,0.13,-0.15,-0.62,9.79
1447550815783110000.00,-0.03,0.00,0.44,0.90,0.01,-0.02,0.11,-0.22,-0.61,9.79
1447550815803120000.00,-0.02,0.00,0.44,0.90,0.03,-0.01,0.09,-0.26,-0.61,9.77
1447550815823150000.00,-0.02,0.00,0.44,0.90,0.02,-0.02,0.08,-0.28,-0.62,9.77
1447550815843150000.00,-0.02,0.00,0.44,0.90,0.03,-0.02,0.06,-0.30,-0.61,9.75
1447550815863150000.00,-0.02,0.00,0.44,0.90,0.04,-0.02,0.05,-0.28,-0.61,9.77
1447550815883130000.00,-0.02,0.00,0.44,0.90,0.05,-0.02,0.05,-0.28,-0.60,9.78
1447550815903120000.00,-0.02,0.00,0.44,0.90,0.05,-0.03,0.03,-0.25,-0.59,9.76
1447550815923120000.00,-0.02,0.00,0.44,0.90,0.05,-0.03,0.02,-0.20,-0.56,9.76
1447550815943120000.00,-0.02,0.00,0.44,0.90,0.06,-0.03,0.01,-0.18,-0.58,9.78
1447550815963150000.00,-0.02,0.00,0.44,0.90,0.05,-0.03,0.01,-0.16,-0.58,9.79
1447550815983150000.00,-0.02,0.00,0.44,0.90,0.04,-0.02,-0.01,-0.14,-0.56,9.83
1447550816003150000.00,-0.02,0.00,0.44,0.90,0.04,-0.02,0.00,-0.11,-0.55,9.81
1447550816023120000.00,-0.02,0.00,0.44,0.90,0.03,-0.02,0.00,-0.07,-0.55,9.81
1447550816043120000.00,-0.02,0.00,0.44,0.90,0.03,-0.02,0.00,-0.05,-0.54,9.82
1447550816063120000.00,-0.02,0.00,0.44,0.90,0.02,-0.01,0.00,-0.03,-0.53,9.83
1447550816083080000.00,-0.02,0.00,0.44,0.90,0.02,-0.01,0.01,0.00,-0.54,9.81
1447550816103120000.00,-0.02,0.00,0.43,0.90,0.01,-0.01,0.02,0.02,-0.53,9.79
1447550816123130000.00,-0.02,0.00,0.43,0.90,0.01,-0.01,0.02,0.03,-0.51,9.77
1447550816143150000.00,-0.02,0.00,0.43,0.90,0.00,-0.02,0.02,0.02,-0.51,9.77
1447550816163150000.00,-0.02,0.00,0.43,0.90,0.01,-0.01,0.03,0.03,-0.51,9.78
1447550816183120000.00,-0.02,0.00,0.43,0.90,0.01,-0.01,0.03,0.02,-0.51,9.79
1447550816203150000.00,-0.02,0.00,0.43,0.90,0.03,-0.01,0.03,0.05,-0.50,9.81
1447550816223140000.00,-0.02,0.00,0.43,0.90,0.03,-0.01,0.04,0.09,-0.49,9.79
1447550816243150000.00,-0.02,0.00,0.43,0.90,0.03,-0.01,0.04,0.12,-0.49,9.79
1447550816263150000.00,-0.02,0.00,0.43,0.90,0.05,-0.01,0.05,0.16,-0.49,9.78
1447550816283150000.00,-0.02,0.00,0.43,0.90,0.06,-0.01,0.04,0.18,-0.47,9.76
1447550816303150000.00,-0.02,0.00,0.43,0.90,0.07,-0.03,0.05,0.17,-0.45,9.75
1447550816323120000.00,-0.02,0.00,0.43,0.90,0.09,-0.02,0.05,0.17,-0.42,9.74
1447550816343150000.00,-0.01,0.00,0.43,0.90,0.10,-0.04,0.05,0.14,-0.38,9.72
1447550816363150000.00,-0.01,0.00,0.43,0.90,0.11,-0.04,0.05,0.13,-0.37,9.74
1447550816383130000.00,-0.01,0.00,0.43,0.90,0.13,-0.06,0.04,0.12,-0.35,9.74
1447550816403080000.00,-0.01,0.00,0.43,0.90,0.15,-0.06,0.04,0.12,-0.32,9.76
1447550816423150000.00,-0.01,0.00,0.43,0.90,0.15,-0.07,0.04,0.12,-0.31,9.73
1447550816443150000.00,-0.01,0.00,0.43,0.90,0.17,-0.09,0.03,0.12,-0.28,9.73
1447550816463150000.00,0.00,0.00,0.43,0.90,0.18,-0.09,0.03,0.13,-0.25,9.75
1447550816483100000.00,0.00,0.00,0.43,0.90,0.20,-0.10,0.04,0.12,-0.23,9.76
1447550816503150000.00,0.00,0.00,0.43,0.90,0.21,-0.10,0.03,0.10,-0.18,9.80
1447550816523080000.00,0.00,0.00,0.43,0.90,0.21,-0.10,0.04,0.10,-0.14,9.81
1447550816543150000.00,0.00,0.00,0.43,0.90,0.22,-0.09,0.04,0.09,-0.11,9.84
1447550816563150000.00,0.01,0.00,0.43,0.90,0.21,-0.08,0.05,0.09,-0.08,9.86
1447550816583070000.00,0.01,0.00,0.43,0.90,0.21,-0.07,0.06,0.09,-0.04,9.86
1447550816603150000.00,0.01,0.00,0.43,0.90,0.20,-0.06,0.05,0.07,-0.02,9.86
1447550816623080000.00,0.01,0.00,0.43,0.90,0.18,-0.04,0.06,0.15,0.01,9.83
1447550816643150000.00,0.01,0.00,0.43,0.90,0.18,-0.04,0.07,0.19,0.05,9.82
1447550816663150000.00,0.02,0.00,0.43,0.90,0.16,-0.03,0.09,0.20,0.08,9.83
1447550816683150000.00,0.02,0.00,0.43,0.90,0.15,-0.02,0.09,0.16,0.12,9.85
1447550816703140000.00,0.02,0.00,0.43,0.90,0.14,-0.02,0.09,0.21,0.16,9.83
1447550816723110000.00,0.02,0.00,0.43,0.90,0.14,-0.02,0.10,0.21,0.18,9.79
1447550816743110000.00,0.02,0.01,0.43,0.90,0.15,-0.01,0.10,0.25,0.22,9.80
1447550816763140000.00,0.02,0.01,0.43,0.90,0.15,-0.01,0.11,0.26,0.27,9.81
1447550816783130000.00,0.02,0.01,0.43,0.90,0.15,-0.01,0.11,0.25,0.29,9.79
1447550816803140000.00,0.03,0.01,0.43,0.90,0.15,-0.02,0.11,0.27,0.30,9.77
1447550816823140000.00,0.03,0.01,0.43,0.90,0.15,-0.02,0.11,0.32,0.33,9.75
1447550816843140000.00,0.03,0.01,0.43,0.90,0.15,-0.02,0.11,0.32,0.35,9.75
1447550816863140000.00,0.03,0.01,0.43,0.90,0.14,-0.02,0.10,0.33,0.37,9.77
1447550816883140000.00,0.03,0.01,0.44,0.90,0.13,-0.03,0.11,0.36,0.40,9.77
1447550816903140000.00,0.03,0.01,0.44,0.90,0.11,-0.03,0.11,0.41,0.42,9.76
1447550816923140000.00,0.03,0.01,0.44,0.90,0.09,-0.03,0.11,0.49,0.44,9.75
1447550816943110000.00,0.03,0.01,0.44,0.90,0.08,-0.03,0.13,0.49,0.48,9.77
1447550816963140000.00,0.03,0.01,0.44,0.90,0.06,-0.04,0.12,0.42,0.50,9.74
1447550816983120000.00,0.04,0.01,0.44,0.90,0.04,-0.04,0.13,0.36,0.50,9.72
1447550817003140000.00,0.04,0.01,0.44,0.90,0.02,-0.04,0.11,0.31,0.50,9.69
1447550817023150000.00,0.04,0.01,0.44,0.90,0.01,-0.04,0.12,0.31,0.50,9.68
1447550817043140000.00,0.04,0.01,0.44,0.90,0.01,-0.04,0.11,0.31,0.49,9.67
1447550817063140000.00,0.04,0.01,0.44,0.90,0.01,-0.05,0.12,0.37,0.50,9.71
1447550817083100000.00,0.04,0.00,0.44,0.90,0.01,-0.04,0.12,0.42,0.52,9.70
1447550817103140000.00,0.04,0.00,0.44,0.90,0.01,-0.05,0.11,0.53,0.54,9.73
1447550817123140000.00,0.04,0.00,0.44,0.90,0.02,-0.05,0.12,0.64,0.54,9.75
1447550817143140000.00,0.04,0.00,0.44,0.90,0.01,-0.05,0.10,0.69,0.57,9.79
1447550817163140000.00,0.04,0.00,0.44,0.90,0.01,-0.04,0.12,0.66,0.57,9.82
1447550817183140000.00,0.04,0.00,0.44,0.90,0.02,-0.03,0.11,0.59,0.58,9.81
1447550817203140000.00,0.04,0.00,0.44,0.89,0.01,-0.02,0.11,0.50,0.56,9.79
1447550817223140000.00,0.04,0.00,0.44,0.89,0.01,-0.02,0.11,0.46,0.54,9.79
1447550817243140000.00,0.04,0.00,0.45,0.89,0.00,0.00,0.11,0.42,0.53,9.77
1447550817263140000.00,0.04,0.00,0.45,0.89,-0.01,0.01,0.10,0.38,0.54,9.79
1447550817283070000.00,0.04,0.00,0.45,0.89,-0.02,0.02,0.11,0.36,0.53,9.80
1447550817303140000.00,0.04,0.00,0.45,0.89,-0.03,0.03,0.10,0.40,0.51,9.81
1447550817323130000.00,0.04,0.00,0.45,0.89,-0.04,0.04,0.10,0.45,0.49,9.81
1447550817343140000.00,0.04,0.00,0.45,0.89,-0.05,0.06,0.10,0.47,0.48,9.82
1447550817363140000.00,0.04,0.00,0.45,0.89,-0.05,0.05,0.10,0.48,0.46,9.81
1447550817383140000.00,0.04,0.00,0.45,0.89,-0.06,0.07,0.09,0.45,0.46,9.82
1447550817403140000.00,0.03,0.00,0.45,0.89,-0.06,0.07,0.10,0.42,0.45,9.80
1447550817423130000.00,0.03,0.00,0.45,0.89,-0.07,0.07,0.09,0.41,0.43,9.80
1447550817443140000.00,0.03,0.00,0.45,0.89,-0.06,0.07,0.09,0.39,0.39,9.77
1447550817463140000.00,0.03,0.00,0.45,0.89,-0.06,0.06,0.09,0.37,0.36,9.76
1447550817483080000.00,0.03,0.00,0.45,0.89,-0.07,0.06,0.07,0.37,0.35,9.76
1447550817503110000.00,0.03,0.00,0.45,0.89,-0.07,0.05,0.08,0.37,0.33,9.78
1447550817523060000.00,0.03,0.00,0.45,0.89,-0.08,0.05,0.07,0.36,0.29,9.76
1447550817543140000.00,0.03,0.00,0.45,0.89,-0.09,0.04,0.08,0.39,0.25,9.78
1447550817563110000.00,0.03,0.00,0.45,0.89,-0.08,0.04,0.07,0.41,0.24,9.79
1447550817583100000.00,0.03,0.00,0.45,0.89,-0.08,0.02,0.08,0.41,0.20,9.79
1447550817603140000.00,0.03,0.00,0.45,0.89,-0.08,0.02,0.08,0.42,0.18,9.81
1447550817623070000.00,0.02,0.00,0.45,0.89,-0.07,0.01,0.07,0.43,0.14,9.82
1447550817643190000.00,0.02,0.00,0.45,0.89,-0.08,0.00,0.08,0.43,0.11,9.83
1447550817663140000.00,0.02,0.00,0.45,0.89,-0.08,0.01,0.08,0.43,0.10,9.83
1447550817683140000.00,0.02,0.00,0.45,0.89,-0.07,0.01,0.08,0.41,0.09,9.86
1447550817703140000.00,0.02,0.00,0.45,0.89,-0.07,0.01,0.08,0.37,0.10,9.86
1447550817723230000.00,0.02,0.00,0.45,0.89,-0.07,0.02,0.09,0.35,0.09,9.85
1447550817743260000.00,0.02,0.00,0.45,0.89,-0.06,0.03,0.08,0.32,0.09,9.83
1447550817763210000.00,0.02,0.00,0.45,0.89,-0.05,0.03,0.08,0.29,0.09,9.83
1447550817783190000.00,0.02,0.00,0.45,0.89,-0.04,0.04,0.07,0.27,0.09,9.81
1447550817803270000.00,0.02,0.00,0.45,0.89,-0.02,0.05,0.06,0.23,0.09,9.80
1447550817823180000.00,0.02,0.00,0.45,0.89,-0.02,0.05,0.06,0.23,0.09,9.78
1447550817843250000.00,0.02,0.00,0.45,0.89,-0.02,0.05,0.06,0.22,0.07,9.77
1447550817863200000.00,0.02,0.00,0.45,0.89,0.00,0.05,0.06,0.21,0.09,9.76
1447550817883220000.00,0.02,0.00,0.45,0.89,0.01,0.06,0.06,0.20,0.09,9.76
1447550817903190000.00,0.02,0.00,0.45,0.89,0.01,0.06,0.05,0.21,0.09,9.75
1447550817923180000.00,0.02,0.00,0.45,0.89,0.02,0.06,0.05,0.23,0.10,9.76
1447550817943210000.00,0.02,0.00,0.45,0.89,0.02,0.06,0.05,0.26,0.11,9.74
1447550817963200000.00,0.02,0.00,0.45,0.89,0.03,0.05,0.04,0.29,0.13,9.76
1447550817983180000.00,0.02,0.00,0.45,0.89,0.03,0.05,0.03,0.30,0.14,9.75
1447550818003200000.00,0.02,0.00,0.45,0.89,0.04,0.05,0.03,0.30,0.15,9.76
1447550818023130000.00,0.02,0.00,0.45,0.89,0.05,0.05,0.03,0.30,0.18,9.76
1447550818043160000.00,0.02,0.01,0.45,0.89,0.05,0.05,0.02,0.28,0.19,9.77
1447550818063180000.00,0.02,0.01,0.45,0.89,0.05,0.04,0.02,0.22,0.18,9.75
1447550818083150000.00,0.02,0.01,0.45,0.89,0.05,0.05,0.02,0.18,0.20,9.75
1447550818103210000.00,0.02,0.01,0.45,0.89,0.05,0.04,0.01,0.16,0.21,9.75
1447550818123170000.00,0.02,0.01,0.45,0.89,0.05,0.04,0.02,0.13,0.22,9.75
1447550818143180000.00,0.02,0.01,0.45,0.89,0.05,0.04,0.01,0.11,0.23,9.77
1447550818163170000.00,0.02,0.01,0.45,0.89,0.05,0.04,0.01,0.11,0.22,9.77
1447550818183180000.00,0.02,0.01,0.45,0.89,0.05,0.05,0.01,0.15,0.22,9.81
1447550818203200000.00,0.02,0.01,0.45,0.89,0.04,0.05,0.01,0.14,0.23,9.82
1447550818223180000.00,0.02,0.01,0.45,0.89,0.04,0.05,0.01,0.14,0.24,9.83
1447550818243160000.00,0.02,0.01,0.45,0.89,0.04,0.07,0.01,0.15,0.23,9.85
1447550818263160000.00,0.02,0.01,0.45,0.89,0.03,0.07,0.01,0.14,0.23,9.85
1447550818283150000.00,0.02,0.01,0.45,0.89,0.02,0.07,0.02,0.13,0.22,9.85
1447550818303200000.00,0.02,0.01,0.45,0.89,0.01,0.08,0.02,0.13,0.22,9.84
1447550818323180000.00,0.02,0.01,0.45,0.89,0.00,0.09,0.02,0.10,0.20,9.82
1447550818343180000.00,0.02,0.01,0.45,0.89,0.00,0.09,0.03,0.07,0.21,9.83
1447550818363180000.00,0.02,0.01,0.45,0.89,-0.01,0.09,0.04,0.07,0.20,9.82
1447550818383160000.00,0.02,0.02,0.45,0.90,-0.01,0.09,0.04,0.05,0.21,9.81
1447550818403220000.00,0.02,0.02,0.45,0.90,0.00,0.09,0.04,0.01,0.20,9.79
1447550818423180000.00,0.02,0.02,0.45,0.90,-0.01,0.09,0.03,0.00,0.18,9.78
1447550818443160000.00,0.01,0.02,0.44,0.90,0.00,0.08,0.02,-0.02,0.17,9.78
1447550818463180000.00,0.01,0.02,0.44,0.90,0.01,0.08,0.02,-0.03,0.15,9.78
1447550818483180000.00,0.01,0.02,0.44,0.90,0.01,0.07,0.02,-0.04,0.13,9.77
1447550818503220000.00,0.01,0.02,0.44,0.90,0.00,0.08,0.01,-0.05,0.11,9.76
1447550818523140000.00,0.01,0.02,0.44,0.90,0.00,0.07,0.02,-0.04,0.12,9.76
1447550818543180000.00,0.01,0.02,0.44,0.90,0.00,0.06,0.02,-0.06,0.14,9.78
1447550818563180000.00,0.01,0.02,0.44,0.90,-0.02,0.06,0.01,-0.09,0.15,9.79
1447550818583170000.00,0.01,0.02,0.44,0.90,-0.02,0.06,0.01,-0.09,0.16,9.78
1447550818603220000.00,0.01,0.02,0.44,0.90,-0.02,0.06,0.01,-0.10,0.16,9.79
1447550818623150000.00,0.01,0.02,0.44,0.90,-0.02,0.05,0.00,-0.10,0.15,9.77
1447550818643180000.00,0.01,0.02,0.44,0.90,-0.02,0.04,0.00,-0.15,0.16,9.77
1447550818663180000.00,0.01,0.02,0.44,0.90,-0.02,0.04,0.00,-0.18,0.16,9.78
1447550818683180000.00,0.01,0.02,0.44,0.90,-0.02,0.03,-0.01,-0.21,0.16,9.76
1447550818703220000.00,0.01,0.02,0.44,0.90,-0.03,0.03,0.00,-0.23,0.18,9.75
1447550818723160000.00,0.01,0.02,0.44,0.90,-0.01,0.03,0.00,-0.23,0.19,9.75
1447550818743190000.00,0.01,0.02,0.44,0.90,-0.01,0.02,0.00,-0.25,0.20,9.78
1447550818763220000.00,0.01,0.02,0.44,0.90,-0.01,0.02,0.00,-0.27,0.21,9.79
1447550818783220000.00,0.01,0.02,0.44,0.90,0.00,0.02,-0.01,-0.25,0.20,9.79
1447550818803220000.00,0.01,0.02,0.44,0.90,-0.01,0.02,0.00,-0.23,0.21,9.79
1447550818823180000.00,0.01,0.02,0.44,0.90,0.00,0.02,0.00,-0.20,0.20,9.80
1447550818843220000.00,0.01,0.02,0.44,0.90,-0.01,0.02,0.00,-0.20,0.21,9.83
1447550818863220000.00,0.01,0.02,0.43,0.90,0.00,0.03,-0.01,-0.22,0.20,9.83
1447550818883220000.00,0.01,0.02,0.43,0.90,0.00,0.04,0.00,-0.22,0.20,9.84
1447550818903220000.00,0.01,0.02,0.43,0.90,0.01,0.04,0.00,-0.24,0.19,9.83
1447550818923220000.00,0.01,0.02,0.43,0.90,0.01,0.03,-0.01,-0.24,0.17,9.82
1447550818943220000.00,0.01,0.02,0.43,0.90,0.01,0.05,-0.01,-0.26,0.17,9.83
1447550818963140000.00,0.01,0.03,0.43,0.90,0.02,0.06,0.00,-0.28,0.16,9.83
1447550818983220000.00,0.01,0.03,0.43,0.90,0.01,0.05,0.00,-0.29,0.15,9.84
1447550819003220000.00,0.01,0.03,0.43,0.90,0.02,0.06,0.00,-0.28,0.15,9.83
1447550819023170000.00,0.01,0.03,0.43,0.90,0.02,0.07,0.00,-0.26,0.15,9.82
1447550819043180000.00,0.01,0.03,0.43,0.90,0.03,0.07,0.01,-0.25,0.16,9.82
1447550819063210000.00,0.01,0.03,0.43,0.90,0.03,0.06,0.01,-0.23,0.15,9.82
1447550819083170000.00,0.01,0.03,0.43,0.90,0.02,0.06,0.02,-0.22,0.13,9.81
1447550819103220000.00,0.01,0.03,0.43,0.90,0.02,0.06,0.03,-0.23,0.12,9.80
1447550819123220000.00,0.01,0.03,0.43,0.90,0.01,0.06,0.04,-0.21,0.12,9.79
1447550819143220000.00,0.01,0.03,0.43,0.90,0.00,0.05,0.04,-0.21,0.12,9.78
1447550819163170000.00,0.01,0.03,0.43,0.90,0.00,0.05,0.05,-0.23,0.11,9.78
1447550819183220000.00,0.01,0.03,0.43,0.90,0.00,0.04,0.06,-0.23,0.11,9.77
1447550819203220000.00,0.01,0.03,0.43,0.90,-0.01,0.03,0.06,-0.24,0.11,9.75
1447550819223220000.00,0.01,0.03,0.43,0.90,0.00,0.02,0.06,-0.25,0.10,9.72
1447550819243170000.00,0.01,0.03,0.43,0.90,0.00,0.01,0.07,-0.23,0.10,9.74
1447550819263170000.00,0.01,0.03,0.43,0.90,0.01,0.00,0.07,-0.22,0.08,9.75
1447550819283220000.00,0.01,0.03,0.43,0.90,0.00,-0.01,0.08,-0.22,0.08,9.76
1447550819303220000.00,0.01,0.03,0.43,0.90,0.01,-0.01,0.08,-0.22,0.09,9.78
1447550819323220000.00,0.01,0.03,0.43,0.90,0.01,-0.02,0.08,-0.23,0.08,9.78
1447550819343130000.00,0.01,0.03,0.43,0.90,0.01,-0.02,0.08,-0.24,0.07,9.77
1447550819363170000.00,0.01,0.03,0.43,0.90,0.02,-0.02,0.08,-0.23,0.09,9.78
1447550819383220000.00,0.01,0.03,0.43,0.90,0.03,-0.02,0.08,-0.24,0.08,9.77
1447550819403220000.00,0.01,0.03,0.43,0.90,0.03,-0.02,0.08,-0.23,0.11,9.79
1447550819423220000.00,0.01,0.03,0.43,0.90,0.03,-0.03,0.07,-0.22,0.09,9.80
1447550819443210000.00,0.01,0.03,0.43,0.90,0.03,-0.01,0.08,-0.22,0.10,9.80
1447550819463170000.00,0.01,0.03,0.43,0.90,0.03,-0.02,0.07,-0.22,0.10,9.79
1447550819483220000.00,0.01,0.03,0.43,0.90,0.03,-0.02,0.06,-0.24,0.13,9.79
1447550819503220000.00,0.01,0.03,0.43,0.90,0.03,-0.02,0.06,-0.25,0.14,9.77
1447550819523160000.00,0.01,0.03,0.43,0.90,0.03,-0.02,0.05,-0.28,0.15,9.77
1447550819543210000.00,0.01,0.03,0.43,0.90,0.03,-0.01,0.04,-0.29,0.17,9.77
1447550819563170000.00,0.01,0.03,0.43,0.90,0.03,-0.01,0.03,-0.29,0.17,9.76
1447550819583140000.00,0.01,0.03,0.43,0.90,0.04,-0.03,0.03,-0.31,0.19,9.76
1447550819603210000.00,0.01,0.03,0.43,0.90,0.05,-0.02,0.01,-0.34,0.20,9.77
1447550819623220000.00,0.01,0.03,0.43,0.90,0.05,-0.02,0.01,-0.35,0.21,9.76
1447550819643210000.00,0.01,0.03,0.43,0.90,0.07,-0.02,0.00,-0.35,0.21,9.78
1447550819663170000.00,0.01,0.03,0.43,0.90,0.07,-0.03,0.00,-0.31,0.23,9.79
1447550819683190000.00,0.01,0.03,0.43,0.90,0.08,-0.03,-0.01,-0.28,0.24,9.81
1447550819703210000.00,0.01,0.03,0.43,0.90,0.07,-0.02,-0.01,-0.26,0.26,9.82
1447550819723220000.00,0.01,0.03,0.43,0.90,0.07,-0.02,-0.03,-0.23,0.29,9.84
1447550819743220000.00,0.01,0.03,0.43,0.90,0.06,-0.01,-0.03,-0.18,0.28,9.86
1447550819763170000.00,0.02,0.03,0.43,0.90,0.06,-0.01,-0.03,-0.16,0.31,9.87
1447550819783210000.00,0.02,0.03,0.43,0.90,0.06,0.00,-0.02,-0.12,0.32,9.88
1447550819803210000.00,0.02,0.03,0.42,0.90,0.06,0.01,-0.02,-0.10,0.33,9.90
1447550819823210000.00,0.02,0.03,0.42,0.90,0.05,0.01,-0.02,-0.08,0.33,9.91
1447550819843220000.00,0.02,0.03,0.42,0.91,0.05,0.02,-0.02,-0.07,0.34,9.90
1447550819863170000.00,0.02,0.03,0.42,0.91,0.03,0.03,-0.01,-0.07,0.34,9.88
1447550819883140000.00,0.02,0.03,0.42,0.91,0.04,0.02,-0.02,-0.06,0.33,9.86
1447550819903220000.00,0.02,0.03,0.42,0.91,0.03,0.03,0.00,-0.05,0.32,9.86
1447550819923210000.00,0.02,0.03,0.42,0.91,0.02,0.04,-0.01,-0.06,0.32,9.87
1447550819943210000.00,0.02,0.03,0.42,0.91,0.00,0.03,0.01,-0.06,0.28,9.85
1447550819963170000.00,0.02,0.03,0.42,0.91,-0.03,0.04,0.02,-0.06,0.27,9.83
1447550819983210000.00,0.02,0.03,0.42,0.91,-0.04,0.03,0.03,-0.07,0.26,9.83
1447550820003360000.00,0.02,0.03,0.42,0.91,-0.07,0.03,0.03,-0.06,0.25,9.83
1447550820023160000.00,0.01,0.03,0.42,0.91,-0.09,0.04,0.05,-0.04,0.25,9.82
1447550820043210000.00,0.01,0.03,0.42,0.91,-0.10,0.04,0.06,-0.04,0.24,9.81
1447550820063170000.00,0.01,0.03,0.42,0.91,-0.12,0.04,0.07,-0.03,0.23,9.81
1447550820083160000.00,0.01,0.03,0.42,0.91,-0.13,0.04,0.07,-0.04,0.20,9.81
1447550820103210000.00,0.01,0.03,0.42,0.91,-0.14,0.05,0.08,-0.07,0.20,9.80
1447550820123330000.00,0.01,0.03,0.42,0.91,-0.15,0.04,0.09,-0.12,0.17,9.80
1447550820143350000.00,0.01,0.03,0.42,0.91,-0.16,0.03,0.09,-0.15,0.15,9.79
1447550820163340000.00,0.01,0.03,0.42,0.91,-0.15,0.04,0.10,-0.17,0.12,9.80
1447550820183350000.00,0.00,0.03,0.42,0.91,-0.15,0.03,0.10,-0.18,0.11,9.79
1447550820203360000.00,0.00,0.03,0.42,0.91,-0.14,0.04,0.10,-0.19,0.08,9.80
1447550820223280000.00,0.00,0.03,0.43,0.90,-0.13,0.04,0.10,-0.19,0.06,9.80
1447550820243310000.00,0.00,0.03,0.43,0.90,-0.12,0.03,0.09,-0.19,0.05,9.81
1447550820263290000.00,0.00,0.03,0.43,0.90,-0.12,0.04,0.10,-0.19,0.04,9.80
1447550820283320000.00,0.00,0.03,0.43,0.90,-0.10,0.04,0.10,-0.18,0.02,9.81
1447550820303330000.00,0.00,0.03,0.43,0.90,-0.09,0.05,0.10,-0.17,0.03,9.83
1447550820323290000.00,0.00,0.03,0.43,0.90,-0.06,0.05,0.09,-0.18,0.02,9.83
1447550820343320000.00,0.00,0.03,0.43,0.90,-0.05,0.05,0.09,-0.19,0.00,9.82
1447550820363310000.00,-0.01,0.03,0.43,0.90,-0.04,0.06,0.09,-0.23,0.01,9.81
1447550820383260000.00,-0.01,0.03,0.43,0.90,-0.03,0.06,0.09,-0.25,0.01,9.80
1447550820403340000.00,-0.01,0.03,0.43,0.90,-0.02,0.07,0.09,-0.26,-0.01,9.78
1447550820423290000.00,-0.01,0.03,0.43,0.90,-0.01,0.05,0.08,-0.28,-0.01,9.78
1447550820443340000.00,-0.01,0.03,0.43,0.90,0.00,0.05,0.07,-0.29,-0.01,9.78
1447550820463310000.00,-0.01,0.03,0.43,0.90,0.02,0.05,0.07,-0.31,-0.03,9.77
1447550820483300000.00,-0.01,0.03,0.43,0.90,0.03,0.04,0.07,-0.33,-0.03,9.76
1447550820503330000.00,-0.01,0.03,0.43,0.90,0.04,0.04,0.06,-0.33,-0.04,9.76
1447550820523320000.00,-0.01,0.03,0.43,0.90,0.05,0.03,0.06,-0.33,-0.02,9.77
1447550820543330000.00,-0.01,0.03,0.43,0.90,0.05,0.02,0.04,-0.32,-0.03,9.77
1447550820563300000.00,-0.01,0.03,0.43,0.90,0.06,0.02,0.04,-0.33,-0.02,9.78
1447550820583260000.00,0.00,0.03,0.43,0.90,0.07,0.01,0.04,-0.33,-0.03,9.78
1447550820603310000.00,0.00,0.03,0.43,0.90,0.08,0.01,0.04,-0.33,-0.02,9.79
1447550820623310000.00,0.00,0.03,0.43,0.90,0.08,0.01,0.03,-0.32,0.00,9.82
1447550820643330000.00,0.00,0.03,0.43,0.90,0.09,0.00,0.03,-0.32,0.02,9.82
1447550820663330000.00,0.00,0.03,0.43,0.90,0.09,0.00,0.03,-0.32,0.03,9.82
1447550820683290000.00,0.00,0.03,0.43,0.90,0.09,-0.01,0.02,-0.33,0.04,9.83
1447550820703330000.00,0.00,0.03,0.43,0.90,0.10,-0.01,0.02,-0.34,0.06,9.83
1447550820723330000.00,0.00,0.03,0.43,0.90,0.10,-0.01,0.02,-0.34,0.07,9.83
1447550820743330000.00,0.00,0.03,0.43,0.90,0.10,-0.02,0.02,-0.37,0.09,9.81
1447550820763330000.00,0.00,0.03,0.43,0.90,0.09,-0.02,0.03,-0.40,0.11,9.82
1447550820783290000.00,0.00,0.03,0.43,0.90,0.09,-0.01,0.02,-0.42,0.13,9.83
1447550820803310000.00,0.00,0.03,0.43,0.90,0.09,-0.02,0.03,-0.44,0.16,9.84
1447550820823330000.00,0.01,0.03,0.43,0.90,0.09,-0.02,0.03,-0.42,0.18,9.84
1447550820843330000.00,0.01,0.03,0.43,0.90,0.09,-0.02,0.03,-0.39,0.22,9.85
1447550820863330000.00,0.01,0.03,0.43,0.90,0.10,-0.02,0.04,-0.38,0.22,9.85
1447550820883290000.00,0.01,0.03,0.43,0.90,0.10,-0.02,0.04,-0.36,0.22,9.86
1447550820903330000.00,0.01,0.03,0.43,0.90,0.09,-0.02,0.04,-0.34,0.22,9.86
1447550820923330000.00,0.01,0.03,0.43,0.90,0.09,-0.01,0.04,-0.32,0.22,9.83
1447550820943330000.00,0.01,0.03,0.43,0.90,0.07,-0.01,0.05,-0.30,0.23,9.83
1447550820963330000.00,0.01,0.03,0.43,0.90,0.06,-0.01,0.06,-0.32,0.24,9.81
1447550820983290000.00,0.01,0.03,0.43,0.90,0.05,0.00,0.06,-0.36,0.26,9.79
1447550821003320000.00,0.01,0.03,0.43,0.90,0.03,-0.01,0.06,-0.40,0.30,9.78
1447550821023280000.00,0.01,0.03,0.43,0.90,0.03,-0.01,0.06,-0.41,0.31,9.75
1447550821043330000.00,0.01,0.03,0.43,0.90,0.01,-0.02,0.05,-0.40,0.31,9.77
1447550821063300000.00,0.01,0.03,0.43,0.90,0.01,-0.03,0.06,-0.36,0.30,9.78
1447550821083250000.00,0.01,0.03,0.43,0.90,-0.01,-0.02,0.05,-0.35,0.30,9.78
1447550821103250000.00,0.01,0.03,0.43,0.90,-0.02,-0.01,0.06,-0.37,0.28,9.76
1447550821123330000.00,0.01,0.03,0.43,0.90,-0.04,-0.02,0.06,-0.36,0.26,9.75
1447550821143330000.00,0.01,0.03,0.43,0.90,-0.05,-0.02,0.06,-0.34,0.26,9.76
1447550821163300000.00,0.01,0.03,0.43,0.90,-0.06,-0.03,0.07,-0.36,0.26,9.75
1447550821183280000.00,0.01,0.03,0.43,0.90,-0.06,-0.03,0.06,-0.36,0.26,9.77
1447550821203260000.00,0.01,0.03,0.43,0.90,-0.08,-0.03,0.08,-0.35,0.25,9.76
1447550821223300000.00,0.01,0.03,0.43,0.90,-0.09,-0.04,0.08,-0.36,0.25,9.74
1447550821243300000.00,0.01,0.03,0.43,0.90,-0.11,-0.04,0.09,-0.34,0.22,9.73
1447550821263330000.00,0.01,0.03,0.43,0.90,-0.13,-0.05,0.12,-0.32,0.20,9.72
1447550821283280000.00,0.01,0.03,0.43,0.90,-0.15,-0.05,0.14,-0.28,0.17,9.74
1447550821303280000.00,0.01,0.02,0.43,0.90,-0.18,-0.06,0.15,-0.23,0.16,9.76
1447550821323300000.00,0.00,0.02,0.43,0.90,-0.20,-0.07,0.17,-0.23,0.11,9.78
1447550821343330000.00,0.00,0.02,0.43,0.90,-0.22,-0.06,0.21,-0.25,0.05,9.79
1447550821363470000.00,0.00,0.02,0.44,0.90,-0.24,-0.05,0.24,-0.30,-0.07,9.79
1447550821383450000.00,0.00,0.02,0.44,0.90,-0.26,-0.05,0.29,-0.27,-0.12,9.81
1447550821403270000.00,0.00,0.02,0.44,0.90,-0.29,-0.05,0.32,-0.18,-0.08,9.85
1447550821423330000.00,-0.01,0.02,0.44,0.90,-0.28,-0.04,0.36,-0.12,-0.09,9.86
1447550821443330000.00,-0.01,0.01,0.45,0.90,-0.30,-0.03,0.38,-0.07,-0.17,9.89
1447550821463320000.00,-0.01,0.01,0.45,0.89,-0.29,-0.03,0.40,-0.08,-0.27,9.88
1447550821483300000.00,-0.01,0.01,0.45,0.89,-0.28,-0.02,0.43,-0.06,-0.36,9.89
1447550821503450000.00,-0.02,0.01,0.46,0.89,-0.28,-0.02,0.46,-0.05,-0.39,9.84
1447550821523390000.00,-0.02,0.01,0.46,0.89,-0.29,-0.01,0.48,-0.03,-0.43,9.84
1447550821543430000.00,-0.02,0.01,0.46,0.89,-0.28,-0.01,0.51,-0.05,-0.51,9.82
1447550821563450000.00,-0.02,0.00,0.47,0.88,-0.26,0.00,0.52,-0.07,-0.59,9.86
1447550821583450000.00,-0.03,0.00,0.47,0.88,-0.25,-0.01,0.55,-0.09,-0.67,9.84
1447550821603400000.00,-0.03,0.00,0.48,0.88,-0.24,0.01,0.56,-0.09,-0.71,9.84
1447550821623450000.00,-0.03,0.00,0.48,0.88,-0.23,0.00,0.59,-0.10,-0.74,9.82
1447550821643450000.00,-0.03,0.00,0.49,0.87,-0.23,0.01,0.60,-0.11,-0.80,9.84
1447550821663420000.00,-0.03,0.00,0.49,0.87,-0.22,0.01,0.61,-0.13,-0.86,9.81
1447550821683410000.00,-0.04,0.00,0.50,0.87,-0.21,0.02,0.63,-0.13,-0.91,9.83
1447550821703450000.00,-0.04,0.00,0.50,0.86,-0.19,0.01,0.64,-0.15,-0.97,9.80
1447550821723420000.00,-0.04,0.00,0.51,0.86,-0.17,0.02,0.65,-0.14,-0.99,9.79
1447550821743450000.00,-0.04,0.00,0.51,0.86,-0.15,0.01,0.66,-0.15,-1.00,9.75
1447550821763430000.00,-0.04,0.00,0.52,0.85,-0.15,0.01,0.66,-0.16,-1.05,9.74
1447550821783410000.00,-0.04,0.00,0.52,0.85,-0.12,0.00,0.68,-0.21,-1.09,9.69
1447550821803450000.00,-0.04,0.00,0.53,0.85,-0.10,0.00,0.69,-0.26,-1.11,9.71
1447550821823380000.00,-0.04,0.00,0.53,0.84,-0.08,-0.01,0.68,-0.30,-1.10,9.68
1447550821843380000.00,-0.05,0.00,0.54,0.84,-0.05,-0.02,0.70,-0.35,-1.09,9.67
1447550821863380000.00,-0.05,0.00,0.54,0.84,-0.03,-0.03,0.70,-0.37,-1.09,9.66
1447550821883400000.00,-0.05,0.00,0.55,0.83,-0.02,-0.03,0.71,-0.39,-1.10,9.66
1447550821903450000.00,-0.05,0.00,0.55,0.83,0.02,-0.03,0.72,-0.42,-1.12,9.68
1447550821923450000.00,-0.05,0.00,0.56,0.83,0.05,-0.03,0.72,-0.44,-1.12,9.67
1447550821943420000.00,-0.04,0.00,0.57,0.82,0.07,-0.04,0.73,-0.41,-1.13,9.66
1447550821963420000.00,-0.04,0.00,0.57,0.82,0.08,-0.04,0.73,-0.38,-1.10,9.65
1447550821983450000.00,-0.04,0.00,0.58,0.82,0.09,-0.05,0.75,-0.34,-1.06,9.64
1447550822003450000.00,-0.04,0.00,0.58,0.81,0.09,-0.06,0.75,-0.30,-1.05,9.65
1447550822023390000.00,-0.04,0.00,0.59,0.81,0.10,-0.07,0.75,-0.27,-1.06,9.64
1447550822043450000.00,-0.04,0.00,0.59,0.80,0.10,-0.08,0.76,-0.28,-1.02,9.69
1447550822063400000.00,-0.04,0.00,0.60,0.80,0.10,-0.10,0.75,-0.28,-0.97,9.69
1447550822083390000.00,-0.04,0.00,0.61,0.79,0.10,-0.09,0.75,-0.28,-0.93,9.69
1447550822103450000.00,-0.04,0.00,0.61,0.79,0.09,-0.10,0.75,-0.27,-0.88,9.69
1447550822123450000.00,-0.03,0.00,0.62,0.79,0.09,-0.11,0.76,-0.25,-0.88,9.72
1447550822143420000.00,-0.03,0.00,0.62,0.78,0.08,-0.12,0.75,-0.27,-0.85,9.74
1447550822163400000.00,-0.03,0.00,0.63,0.78,0.08,-0.11,0.75,-0.25,-0.82,9.78
1447550822183450000.00,-0.03,0.00,0.63,0.77,0.07,-0.11,0.75,-0.23,-0.79,9.75
1447550822203440000.00,-0.03,0.00,0.64,0.77,0.07,-0.11,0.75,-0.22,-0.76,9.77
1447550822223450000.00,-0.03,0.00,0.64,0.76,0.07,-0.11,0.75,-0.18,-0.76,9.77
1447550822243450000.00,-0.03,0.00,0.65,0.76,0.05,-0.11,0.75,-0.16,-0.74,9.80
1447550822263400000.00,-0.03,0.00,0.66,0.75,0.05,-0.11,0.75,-0.14,-0.72,9.82
1447550822283450000.00,-0.03,0.00,0.66,0.75,0.05,-0.10,0.75,-0.12,-0.69,9.85
1447550822303430000.00,-0.02,-0.01,0.67,0.75,0.04,-0.10,0.75,-0.09,-0.68,9.83
1447550822323370000.00,-0.02,-0.01,0.67,0.74,0.03,-0.09,0.75,-0.05,-0.68,9.82
1447550822343370000.00,-0.02,-0.01,0.68,0.74,0.03,-0.10,0.74,-0.05,-0.68,9.81
1447550822363370000.00,-0.02,-0.01,0.68,0.73,0.03,-0.09,0.73,-0.04,-0.67,9.82
1447550822383370000.00,-0.02,-0.01,0.69,0.73,0.02,-0.09,0.73,-0.10,-0.65,9.81
1447550822403370000.00,-0.02,-0.01,0.69,0.72,0.04,-0.09,0.72,-0.16,-0.63,9.76
1447550822423360000.00,-0.02,-0.01,0.70,0.72,0.05,-0.10,0.69,-0.20,-0.57,9.73
1447550822443360000.00,-0.02,-0.01,0.70,0.71,0.09,-0.11,0.67,-0.24,-0.50,9.71
1447550822463360000.00,-0.02,-0.01,0.71,0.71,0.12,-0.12,0.64,-0.31,-0.46,9.71
1447550822483390000.00,-0.02,-0.01,0.71,0.70,0.18,-0.11,0.60,-0.34,-0.47,9.79
1447550822503450000.00,-0.01,-0.01,0.71,0.70,0.22,-0.11,0.58,-0.31,-0.51,9.77
1447550822523390000.00,-0.01,0.00,0.72,0.70,0.27,-0.10,0.56,-0.23,-0.52,9.78
1447550822543440000.00,-0.01,0.00,0.72,0.69,0.28,-0.08,0.54,-0.19,-0.46,9.74
1447550822563390000.00,-0.01,0.00,0.72,0.69,0.30,-0.09,0.53,-0.17,-0.37,9.74
1447550822583390000.00,0.00,0.00,0.73,0.69,0.32,-0.10,0.51,-0.13,-0.32,9.77
1447550822603440000.00,0.00,0.00,0.73,0.68,0.33,-0.08,0.50,-0.09,-0.27,9.79
1447550822623440000.00,0.00,0.00,0.73,0.68,0.34,-0.09,0.49,-0.04,-0.25,9.81
1447550822643420000.00,0.01,0.01,0.74,0.68,0.33,-0.09,0.48,-0.01,-0.18,9.80
1447550822663390000.00,0.01,0.01,0.74,0.67,0.32,-0.09,0.46,0.03,-0.12,9.83
1447550822683420000.00,0.01,0.01,0.74,0.67,0.32,-0.07,0.46,0.03,-0.08,9.85
1447550822703440000.00,0.01,0.01,0.74,0.67,0.31,-0.06,0.44,0.06,-0.04,9.86
1447550822723440000.00,0.02,0.01,0.75,0.66,0.31,-0.05,0.43,0.08,0.02,9.85
1447550822743430000.00,0.02,0.01,0.75,0.66,0.31,-0.04,0.44,0.11,0.12,9.82
1447550822763400000.00,0.02,0.02,0.75,0.66,0.29,-0.03,0.42,0.14,0.14,9.77
1447550822783440000.00,0.02,0.02,0.76,0.66,0.27,-0.03,0.41,0.14,0.20,9.79
1447550822803440000.00,0.02,0.02,0.76,0.65,0.25,-0.03,0.41,0.16,0.22,9.77
1447550822823410000.00,0.03,0.02,0.76,0.65,0.23,-0.02,0.42,0.21,0.24,9.78
1447550822843440000.00,0.03,0.02,0.76,0.65,0.20,-0.02,0.41,0.23,0.30,9.75
1447550822863400000.00,0.03,0.02,0.77,0.64,0.19,-0.01,0.41,0.27,0.36,9.73
1447550822883410000.00,0.03,0.02,0.77,0.64,0.17,-0.02,0.40,0.30,0.40,9.77
1447550822903410000.00,0.03,0.02,0.77,0.64,0.16,-0.02,0.39,0.30,0.42,9.75
1447550822923410000.00,0.03,0.03,0.77,0.63,0.16,-0.01,0.39,0.30,0.45,9.74
1447550822943440000.00,0.03,0.03,0.77,0.63,0.15,-0.01,0.39,0.30,0.46,9.73
1447550822963380000.00,0.04,0.03,0.78,0.63,0.14,-0.01,0.38,0.30,0.48,9.74
1447550822983440000.00,0.04,0.03,0.78,0.63,0.14,-0.01,0.38,0.32,0.50,9.76
1447550823003410000.00,0.04,0.03,0.78,0.62,0.12,0.00,0.38,0.35,0.54,9.78
1447550823023380000.00,0.04,0.03,0.78,0.62,0.10,0.00,0.37,0.36,0.57,9.78
1447550823043410000.00,0.04,0.03,0.79,0.62,0.09,0.01,0.38,0.35,0.58,9.81
1447550823063380000.00,0.04,0.03,0.79,0.61,0.08,0.02,0.38,0.38,0.58,9.82
1447550823083390000.00,0.04,0.03,0.79,0.61,0.06,0.04,0.40,0.39,0.60,9.83
1447550823103410000.00,0.04,0.03,0.79,0.61,0.02,0.04,0.40,0.40,0.65,9.85
1447550823123410000.00,0.04,0.03,0.80,0.60,0.01,0.06,0.40,0.44,0.64,9.86
1447550823143410000.00,0.04,0.03,0.80,0.60,-0.03,0.07,0.42,0.48,0.63,9.86
1447550823163380000.00,0.04,0.03,0.80,0.60,-0.06,0.09,0.43,0.46,0.60,9.86
1447550823183410000.00,0.04,0.03,0.80,0.59,-0.08,0.09,0.44,0.43,0.61,9.86
1447550823203410000.00,0.03,0.03,0.81,0.59,-0.10,0.09,0.45,0.40,0.61,9.85
1447550823223410000.00,0.03,0.03,0.81,0.59,-0.13,0.10,0.44,0.34,0.57,9.82
1447550823243410000.00,0.03,0.03,0.81,0.58,-0.16,0.10,0.44,0.30,0.57,9.81
1447550823263440000.00,0.03,0.03,0.81,0.58,-0.18,0.09,0.44,0.28,0.54,9.78
1447550823283440000.00,0.03,0.03,0.82,0.58,-0.21,0.08,0.45,0.23,0.47,9.78
1447550823303440000.00,0.03,0.02,0.82,0.57,-0.23,0.08,0.45,0.17,0.43,9.81
1447550823323440000.00,0.02,0.02,0.82,0.57,-0.25,0.07,0.45,0.12,0.39,9.80
1447550823343410000.00,0.02,0.02,0.82,0.57,-0.27,0.06,0.45,0.06,0.35,9.77
1447550823363440000.00,0.02,0.02,0.83,0.56,-0.28,0.06,0.46,0.03,0.30,9.74
1447550823383440000.00,0.02,0.02,0.83,0.56,-0.28,0.04,0.44,0.04,0.24,9.74
1447550823403410000.00,0.02,0.01,0.83,0.56,-0.28,0.03,0.44,-0.01,0.16,9.74
1447550823423410000.00,0.02,0.01,0.83,0.55,-0.27,0.01,0.43,-0.04,0.06,9.76
1447550823443410000.00,0.01,0.01,0.84,0.55,-0.28,0.00,0.43,-0.05,0.00,9.75
1447550823463390000.00,0.01,0.01,0.84,0.55,-0.26,-0.01,0.43,-0.05,-0.06,9.77
1447550823483400000.00,0.01,0.00,0.84,0.54,-0.24,-0.01,0.43,-0.04,-0.13,9.76
1447550823503440000.00,0.01,0.00,0.84,0.54,-0.24,-0.02,0.42,-0.06,-0.19,9.79
1447550823523380000.00,0.01,0.00,0.84,0.54,-0.21,-0.02,0.42,-0.05,-0.24,9.81
1447550823543440000.00,0.01,0.00,0.85,0.53,-0.19,-0.02,0.42,-0.03,-0.30,9.83
1447550823563450000.00,0.01,0.00,0.85,0.53,-0.18,-0.01,0.42,0.01,-0.37,9.81
1447550823583400000.00,0.01,-0.01,0.85,0.53,-0.16,-0.01,0.41,0.02,-0.40,9.77
1447550823603440000.00,0.00,-0.01,0.85,0.52,-0.14,-0.01,0.41,0.03,-0.44,9.76
1447550823623450000.00,0.00,-0.01,0.85,0.52,-0.12,-0.02,0.41,0.01,-0.47,9.76
1447550823643430000.00,0.00,-0.01,0.86,0.52,-0.10,-0.02,0.40,-0.01,-0.52,9.73
1447550823663470000.00,0.00,-0.01,0.86,0.51,-0.09,-0.02,0.38,0.03,-0.54,9.74
1447550823683440000.00,0.00,-0.01,0.86,0.51,-0.08,-0.03,0.38,0.07,-0.54,9.68
1447550823703470000.00,0.00,-0.01,0.86,0.51,-0.06,-0.04,0.37,0.05,-0.52,9.60
1447550823723470000.00,0.00,-0.01,0.86,0.50,-0.05,-0.06,0.36,0.06,-0.53,9.67
1447550823743470000.00,0.00,-0.01,0.87,0.50,-0.02,-0.06,0.34,0.08,-0.57,9.70
1447550823763400000.00,0.00,-0.01,0.87,0.50,0.00,-0.07,0.33,0.23,-0.59,9.78
1447550823783470000.00,0.00,-0.01,0.87,0.50,0.01,-0.06,0.33,0.25,-0.58,9.76
1447550823803470000.00,0.00,-0.01,0.87,0.49,0.03,-0.05,0.33,0.31,-0.56,9.83
1447550823823470000.00,0.00,-0.01,0.87,0.49,0.04,-0.03,0.32,0.34,-0.53,9.81
1447550823843470000.00,0.01,-0.01,0.87,0.49,0.06,-0.01,0.31,0.34,-0.53,9.88
1447550823863470000.00,0.01,-0.01,0.87,0.48,0.08,0.00,0.30,0.37,-0.52,9.91
1447550823883470000.00,0.01,-0.01,0.88,0.48,0.09,0.01,0.29,0.43,-0.53,9.91
1447550823903470000.00,0.01,-0.01,0.88,0.48,0.09,0.02,0.29,0.41,-0.53,9.87
1447550823923470000.00,0.01,-0.01,0.88,0.48,0.09,0.04,0.29,0.43,-0.50,9.87
1447550823943470000.00,0.01,-0.01,0.88,0.47,0.09,0.05,0.29,0.47,-0.45,9.87
1447550823963470000.00,0.01,-0.01,0.88,0.47,0.09,0.05,0.29,0.48,-0.43,9.87
1447550823983470000.00,0.01,-0.01,0.88,0.47,0.10,0.05,0.28,0.52,-0.41,9.87
1447550824003470000.00,0.01,-0.01,0.88,0.47,0.10,0.06,0.27,0.55,-0.40,9.87
1447550824023400000.00,0.01,-0.01,0.89,0.46,0.09,0.06,0.27,0.54,-0.37,9.87
1447550824043410000.00,0.01,-0.01,0.89,0.46,0.09,0.05,0.26,0.54,-0.33,9.86
1447550824063430000.00,0.01,0.00,0.89,0.46,0.08,0.05,0.27,0.54,-0.32,9.87
1447550824083390000.00,0.01,0.00,0.89,0.46,0.08,0.06,0.27,0.51,-0.34,9.87
1447550824103460000.00,0.01,0.00,0.89,0.45,0.08,0.05,0.28,0.50,-0.37,9.89
1447550824123430000.00,0.01,0.00,0.89,0.45,0.08,0.05,0.27,0.51,-0.34,9.88
1447550824143460000.00,0.01,0.00,0.89,0.45,0.08,0.04,0.27,0.49,-0.31,9.88
1447550824163460000.00,0.01,0.00,0.90,0.44,0.08,0.04,0.28,0.48,-0.29,9.88
1447550824183470000.00,0.01,0.00,0.90,0.44,0.07,0.04,0.28,0.49,-0.30,9.89
1447550824203460000.00,0.01,0.00,0.90,0.44,0.06,0.04,0.28,0.47,-0.31,9.94
1447550824223460000.00,0.01,0.00,0.90,0.44,0.07,0.04,0.28,0.46,-0.29,9.94
1447550824243430000.00,0.01,0.00,0.90,0.43,0.08,0.05,0.28,0.47,-0.26,9.95
1447550824263430000.00,0.01,0.00,0.90,0.43,0.08,0.05,0.27,0.44,-0.22,9.93
1447550824283430000.00,0.01,0.00,0.90,0.43,0.09,0.05,0.27,0.44,-0.19,9.90
1447550824303460000.00,0.01,0.00,0.90,0.43,0.08,0.05,0.27,0.43,-0.20,9.88
1447550824323460000.00,0.01,0.01,0.91,0.42,0.09,0.04,0.27,0.39,-0.20,9.86
1447550824343430000.00,0.01,0.01,0.91,0.42,0.07,0.05,0.26,0.35,-0.20,9.83
1447550824363460000.00,0.01,0.01,0.91,0.42,0.07,0.04,0.25,0.30,-0.18,9.80
1447550824383430000.00,0.01,0.01,0.91,0.42,0.07,0.03,0.26,0.24,-0.13,9.76
1447550824403430000.00,0.01,0.01,0.91,0.41,0.07,0.03,0.24,0.15,-0.10,9.72
1447550824423440000.00,0.01,0.01,0.91,0.41,0.07,0.02,0.24,0.10,-0.08,9.71
1447550824443460000.00,0.01,0.01,0.91,0.41,0.07,0.00,0.23,0.05,-0.07,9.72
1447550824463460000.00,0.01,0.01,0.91,0.41,0.07,0.00,0.21,0.04,-0.06,9.73
1447550824483430000.00,0.01,0.01,0.91,0.41,0.06,-0.01,0.20,0.06,-0.05,9.73
1447550824503430000.00,0.01,0.01,0.91,0.40,0.04,-0.01,0.20,0.06,-0.05,9.70
1447550824523390000.00,0.01,0.01,0.92,0.40,0.03,-0.01,0.19,0.06,-0.06,9.70
1447550824543430000.00,0.01,0.01,0.92,0.40,0.01,-0.02,0.19,0.06,-0.06,9.70
1447550824563460000.00,0.01,0.01,0.92,0.40,0.00,-0.03,0.18,0.04,-0.06,9.72
1447550824583370000.00,0.01,0.01,0.92,0.40,-0.01,-0.04,0.19,0.06,-0.04,9.75
1447550824603460000.00,0.01,0.01,0.92,0.40,-0.02,-0.03,0.17,0.05,-0.02,9.75
1447550824623460000.00,0.01,0.01,0.92,0.39,-0.01,-0.03,0.17,0.07,-0.02,9.74
1447550824643470000.00,0.01,0.01,0.92,0.39,-0.02,-0.03,0.17,0.08,-0.02,9.75
1447550824663460000.00,0.01,0.01,0.92,0.39,-0.01,-0.03,0.16,0.08,-0.05,9.77
1447550824683440000.00,0.01,0.01,0.92,0.39,-0.02,-0.03,0.16,0.10,-0.04,9.79
1447550824703470000.00,0.01,0.01,0.92,0.39,-0.02,-0.03,0.15,0.15,-0.05,9.80
1447550824723370000.00,0.01,0.01,0.92,0.39,-0.01,-0.03,0.15,0.17,-0.06,9.80
1447550824743390000.00,0.01,0.01,0.92,0.39,-0.01,-0.02,0.14,0.21,-0.06,9.81
1447550824763460000.00,0.01,0.01,0.92,0.38,-0.02,-0.02,0.14,0.20,-0.06,9.82
1447550824783460000.00,0.01,0.01,0.92,0.38,-0.02,-0.03,0.15,0.22,-0.07,9.86
1447550824803430000.00,0.01,0.01,0.92,0.38,-0.02,-0.01,0.14,0.22,-0.05,9.87
1447550824823440000.00,0.01,0.01,0.92,0.38,-0.01,-0.01,0.14,0.22,-0.05,9.87
1447550824843440000.00,0.01,0.01,0.92,0.38,-0.01,-0.01,0.14,0.23,-0.05,9.86
1447550824863460000.00,0.01,0.01,0.93,0.38,-0.01,0.00,0.14,0.24,-0.04,9.88
1447550824883450000.00,0.01,0.01,0.93,0.38,-0.01,-0.01,0.14,0.24,-0.04,9.90
1447550824903460000.00,0.01,0.00,0.93,0.38,-0.01,0.00,0.14,0.25,-0.05,9.91
1447550824923460000.00,0.01,0.00,0.93,0.37,0.00,0.01,0.14,0.27,-0.07,9.92
1447550824943460000.00,0.01,0.00,0.93,0.37,-0.01,0.01,0.14,0.29,-0.06,9.92
1447550824963530000.00,0.01,0.00,0.93,0.37,-0.02,0.02,0.14,0.29,-0.04,9.92
1447550824983590000.00,0.01,0.00,0.93,0.37,-0.01,0.02,0.15,0.29,-0.04,9.94
1447550825003580000.00,0.01,0.00,0.93,0.37,-0.02,0.03,0.14,0.30,-0.04,9.94
1447550825023510000.00,0.01,0.00,0.93,0.37,-0.02,0.03,0.16,0.29,-0.04,9.93
1447550825043530000.00,0.01,0.00,0.93,0.37,-0.03,0.05,0.16,0.29,-0.04,9.93
1447550825063550000.00,0.01,0.00,0.93,0.37,-0.03,0.05,0.16,0.28,-0.04,9.95
1447550825083510000.00,0.01,0.00,0.93,0.36,-0.02,0.04,0.16,0.28,-0.05,9.93
1447550825103580000.00,0.01,0.00,0.93,0.36,-0.03,0.05,0.16,0.27,-0.06,9.92
1447550825123550000.00,0.01,0.00,0.93,0.36,-0.03,0.05,0.14,0.25,-0.08,9.91
1447550825143550000.00,0.01,0.00,0.93,0.36,-0.02,0.06,0.15,0.24,-0.10,9.92
1447550825163570000.00,0.01,0.00,0.93,0.36,-0.02,0.06,0.15,0.23,-0.10,9.89
1447550825183580000.00,0.00,0.00,0.93,0.36,-0.03,0.07,0.16,0.21,-0.10,9.88
1447550825203580000.00,0.00,0.00,0.93,0.36,-0.01,0.06,0.14,0.22,-0.09,9.88
1447550825223550000.00,0.00,0.00,0.93,0.35,0.00,0.05,0.13,0.21,-0.10,9.86
1447550825243580000.00,0.00,0.00,0.94,0.35,0.01,0.05,0.13,0.18,-0.12,9.87
1447550825263540000.00,0.00,0.00,0.94,0.35,0.01,0.05,0.13,0.16,-0.13,9.85
1447550825283550000.00,0.00,0.00,0.94,0.35,0.01,0.05,0.13,0.11,-0.15,9.82
1447550825303580000.00,0.00,0.00,0.94,0.35,0.01,0.04,0.12,0.07,-0.15,9.78
1447550825323550000.00,0.00,0.00,0.94,0.35,0.01,0.02,0.12,0.02,-0.18,9.77
1447550825343580000.00,0.00,0.00,0.94,0.35,0.00,0.02,0.13,0.00,-0.19,9.76
1447550825363550000.00,0.00,0.00,0.94,0.35,0.01,0.01,0.13,-0.04,-0.20,9.75
1447550825383520000.00,0.00,0.00,0.94,0.35,0.00,0.00,0.13,-0.06,-0.20,9.75
1447550825403570000.00,0.00,0.00,0.94,0.34,0.00,-0.01,0.13,-0.08,-0.21,9.74
1447550825423580000.00,0.00,0.00,0.94,0.34,-0.01,-0.01,0.12,-0.06,-0.22,9.74
1447550825443580000.00,0.00,0.00,0.94,0.34,-0.01,-0.02,0.13,-0.08,-0.21,9.74
1447550825463520000.00,0.00,0.00,0.94,0.34,-0.02,-0.03,0.13,-0.09,-0.23,9.74
1447550825483480000.00,0.00,0.00,0.94,0.34,-0.02,-0.02,0.12,-0.08,-0.23,9.76
1447550825503580000.00,0.00,0.00,0.94,0.34,-0.03,-0.03,0.13,-0.08,-0.23,9.75
1447550825523510000.00,0.00,0.00,0.94,0.34,-0.03,-0.04,0.13,-0.08,-0.23,9.75
1447550825543580000.00,0.00,0.00,0.94,0.34,-0.04,-0.04,0.14,-0.09,-0.22,9.76
1447550825563520000.00,0.00,0.00,0.94,0.34,-0.03,-0.04,0.13,-0.07,-0.22,9.79
1447550825583490000.00,0.00,0.00,0.94,0.34,-0.04,-0.04,0.12,-0.06,-0.23,9.80
1447550825603540000.00,0.00,0.00,0.94,0.33,-0.03,-0.04,0.12,-0.02,-0.24,9.79
1447550825623580000.00,0.00,0.00,0.94,0.33,-0.02,-0.05,0.13,0.02,-0.28,9.81
1447550825643580000.00,0.00,0.00,0.94,0.33,-0.01,-0.05,0.12,0.05,-0.28,9.83
1447550825663520000.00,0.00,0.00,0.94,0.33,-0.02,-0.05,0.13,0.11,-0.28,9.84
1447550825683520000.00,0.00,0.00,0.94,0.33,-0.01,-0.04,0.14,0.16,-0.29,9.87
1447550825703540000.00,0.00,0.00,0.94,0.33,-0.01,-0.05,0.15,0.17,-0.28,9.88
1447550825723580000.00,0.01,0.00,0.95,0.33,-0.01,-0.04,0.16,0.16,-0.27,9.89
1447550825743580000.00,0.01,0.00,0.95,0.33,-0.02,-0.03,0.17,0.12,-0.27,9.89
1447550825763500000.00,0.01,0.00,0.95,0.32,-0.01,-0.02,0.17,0.12,-0.27,9.91
1447550825783520000.00,0.01,0.00,0.95,0.32,-0.01,-0.02,0.18,0.12,-0.25,9.90
1447550825803540000.00,0.01,0.00,0.95,0.32,0.00,0.00,0.18,0.14,-0.26,9.88
1447550825823590000.00,0.01,0.00,0.95,0.32,0.00,0.00,0.17,0.15,-0.26,9.87
1447550825843580000.00,0.01,0.00,0.95,0.32,0.00,0.01,0.17,0.14,-0.23,9.87
1447550825863520000.00,0.01,0.00,0.95,0.32,0.01,0.02,0.18,0.14,-0.23,9.87
1447550825883520000.00,0.01,0.00,0.95,0.31,0.00,0.02,0.17,0.14,-0.21,9.86
1447550825903540000.00,0.01,0.00,0.95,0.31,0.02,0.01,0.17,0.16,-0.21,9.85
1447550825923570000.00,0.00,0.00,0.95,0.31,0.02,0.02,0.17,0.14,-0.18,9.84
1447550825943570000.00,0.00,0.00,0.95,0.31,0.03,0.02,0.17,0.12,-0.19,9.84
1447550825963520000.00,0.00,0.00,0.95,0.31,0.03,0.02,0.16,0.09,-0.17,9.83
1447550825983520000.00,0.00,0.00,0.95,0.31,0.04,0.03,0.16,0.06,-0.16,9.83
1447550826003540000.00,0.00,0.00,0.95,0.31,0.05,0.03,0.15,0.06,-0.18,9.81
1447550826023510000.00,0.00,0.00,0.95,0.31,0.06,0.03,0.15,0.05,-0.18,9.82
1447550826043570000.00,0.00,0.00,0.95,0.30,0.06,0.04,0.14,0.02,-0.18,9.82
1447550826063520000.00,0.00,0.00,0.95,0.30,0.07,0.04,0.15,0.01,-0.15,9.81
1447550826083470000.00,0.00,0.00,0.95,0.30,0.07,0.05,0.13,-0.01,-0.14,9.81
1447550826103510000.00,0.00,0.00,0.95,0.30,0.07,0.04,0.13,-0.01,-0.14,9.77
1447550826123570000.00,0.00,0.00,0.95,0.30,0.08,0.04,0.12,-0.02,-0.14,9.76
1447550826143570000.00,0.00,0.00,0.95,0.30,0.06,0.04,0.11,-0.04,-0.12,9.77
1447550826163510000.00,0.00,0.00,0.95,0.30,0.07,0.04,0.10,-0.05,-0.12,9.75
1447550826183500000.00,0.00,0.00,0.95,0.30,0.07,0.03,0.09,-0.05,-0.12,9.76
1447550826203510000.00,0.00,0.01,0.95,0.30,0.07,0.03,0.08,-0.07,-0.15,9.76
1447550826223540000.00,0.00,0.01,0.96,0.30,0.05,0.03,0.06,-0.04,-0.17,9.75
1447550826243570000.00,0.00,0.01,0.96,0.30,0.04,0.02,0.06,0.00,-0.15,9.76
1447550826263510000.00,0.00,0.01,0.96,0.30,0.04,0.02,0.05,0.03,-0.16,9.78
1447550826283510000.00,0.00,0.01,0.96,0.30,0.02,0.02,0.06,0.02,-0.18,9.78
1447550826303510000.00,0.00,0.01,0.96,0.29,0.01,0.03,0.05,0.00,-0.19,9.77
1447550826323570000.00,0.00,0.01,0.96,0.29,-0.01,0.01,0.06,0.00,-0.18,9.77
1447550826343540000.00,0.00,0.01,0.96,0.29,-0.03,0.00,0.08,0.00,-0.17,9.77
1447550826363490000.00,0.00,0.01,0.96,0.29,-0.05,0.01,0.07,-0.02,-0.16,9.78
1447550826383510000.00,0.00,0.00,0.96,0.29,-0.07,0.00,0.08,-0.01,-0.18,9.78
1447550826403550000.00,0.00,0.00,0.96,0.29,-0.08,0.01,0.09,0.00,-0.20,9.78
1447550826423570000.00,0.00,0.00,0.96,0.29,-0.08,0.01,0.09,-0.02,-0.20,9.77
1447550826443540000.00,0.00,0.00,0.96,0.29,-0.08,-0.01,0.09,-0.03,-0.21,9.76
1447550826463500000.00,0.00,0.00,0.96,0.29,-0.08,0.00,0.09,0.00,-0.22,9.77
1447550826483570000.00,0.00,0.00,0.96,0.29,-0.07,-0.01,0.09,0.02,-0.23,9.79
1447550826503510000.00,0.00,0.00,0.96,0.29,-0.05,0.00,0.08,0.03,-0.26,9.82
1447550826523500000.00,0.00,0.00,0.96,0.29,-0.04,0.00,0.08,0.06,-0.27,9.84
1447550826543570000.00,0.00,0.00,0.96,0.29,-0.03,0.02,0.07,0.10,-0.28,9.86
1447550826563490000.00,0.00,0.00,0.96,0.29,-0.02,0.02,0.08,0.17,-0.29,9.84
1447550826583480000.00,0.00,0.00,0.96,0.29,-0.02,0.02,0.07,0.23,-0.26,9.84
1447550826603540000.00,0.00,0.00,0.96,0.28,-0.02,0.02,0.07,0.25,-0.26,9.79
1447550826623570000.00,0.00,0.00,0.96,0.28,-0.02,0.01,0.07,0.24,-0.27,9.79
1447550826643570000.00,0.00,0.00,0.96,0.28,-0.02,0.01,0.06,0.18,-0.27,9.78
1447550826663500000.00,0.00,0.00,0.96,0.28,-0.01,0.00,0.04,0.14,-0.26,9.76
1447550826683470000.00,0.00,0.00,0.96,0.28,0.00,-0.01,0.02,0.09,-0.26,9.71
1447550826703540000.00,0.00,0.00,0.96,0.28,0.01,-0.03,0.01,0.06,-0.28,9.69
1447550826723570000.00,0.00,0.00,0.96,0.28,0.02,-0.03,0.00,-0.02,-0.27,9.68
1447550826743570000.00,0.00,0.00,0.96,0.28,0.03,-0.04,-0.01,-0.02,-0.27,9.69
1447550826763490000.00,0.00,0.00,0.96,0.28,0.04,-0.06,-0.02,0.01,-0.28,9.68
1447550826783510000.00,0.00,0.00,0.96,0.28,0.05,-0.07,-0.02,0.04,-0.29,9.68
1447550826803510000.00,0.00,0.00,0.96,0.28,0.06,-0.08,-0.03,0.09,-0.27,9.71
1447550826823570000.00,0.00,0.00,0.96,0.29,0.06,-0.09,-0.02,0.12,-0.28,9.74
1447550826843570000.00,0.00,0.00,0.96,0.29,0.06,-0.08,-0.02,0.16,-0.29,9.77
1447550826863510000.00,0.00,0.00,0.96,0.29,0.07,-0.08,-0.03,0.17,-0.30,9.80
1447550826883510000.00,0.01,0.00,0.96,0.29,0.07,-0.07,-0.01,0.20,-0.30,9.83
1447550826903540000.00,0.01,0.00,0.96,0.29,0.06,-0.07,0.00,0.23,-0.28,9.82
1447550826923570000.00,0.01,0.00,0.96,0.29,0.06,-0.07,0.00,0.28,-0.26,9.84
1447550826943570000.00,0.01,0.00,0.96,0.29,0.06,-0.05,0.01,0.30,-0.25,9.85
1447550826963500000.00,0.01,0.00,0.96,0.29,0.04,-0.04,0.01,0.29,-0.26,9.86
1447550826983510000.00,0.01,0.00,0.96,0.29,0.03,-0.02,0.02,0.32,-0.22,9.86
1447550827003530000.00,0.01,0.00,0.96,0.29,0.03,-0.02,0.04,0.35,-0.25,9.85
1447550827023500000.00,0.01,0.00,0.96,0.29,0.03,0.00,0.04,0.35,-0.23,9.85
1447550827043570000.00,0.01,0.00,0.96,0.29,0.04,0.02,0.05,0.33,-0.21,9.86
1447550827063500000.00,0.01,0.00,0.96,0.28,0.03,0.03,0.06,0.31,-0.20,9.83
1447550827083480000.00,0.01,0.00,0.96,0.28,0.02,0.03,0.06,0.28,-0.21,9.82
1447550827103530000.00,0.01,0.00,0.96,0.28,0.03,0.04,0.07,0.28,-0.18,9.82
1447550827123570000.00,0.01,0.00,0.96,0.28,0.03,0.04,0.07,0.28,-0.18,9.82
1447550827143570000.00,0.01,0.00,0.96,0.28,0.02,0.05,0.08,0.30,-0.19,9.83
1447550827163500000.00,0.01,0.00,0.96,0.28,0.03,0.05,0.07,0.30,-0.19,9.84
1447550827183510000.00,0.01,0.00,0.96,0.28,0.01,0.07,0.09,0.27,-0.19,9.86
1447550827203530000.00,0.01,0.00,0.96,0.28,0.00,0.07,0.09,0.28,-0.19,9.83
1447550827223640000.00,0.01,0.00,0.96,0.28,-0.02,0.08,0.09,0.32,-0.17,9.85
1447550827243570000.00,0.00,0.00,0.96,0.28,-0.03,0.07,0.11,0.32,-0.14,9.84
1447550827263500000.00,0.00,0.00,0.96,0.28,-0.05,0.08,0.11,0.33,-0.11,9.84
1447550827283510000.00,0.00,0.00,0.96,0.28,-0.06,0.08,0.09,0.36,-0.09,9.84
1447550827303680000.00,0.00,0.00,0.96,0.28,-0.07,0.07,0.10,0.36,-0.09,9.80
1447550827323570000.00,0.00,0.00,0.96,0.28,-0.07,0.07,0.09,0.30,-0.11,9.80
1447550827343530000.00,0.00,0.00,0.96,0.28,-0.07,0.06,0.09,0.21,-0.12,9.80
1447550827363670000.00,0.00,0.00,0.96,0.27,-0.07,0.05,0.08,0.18,-0.13,9.80
1447550827383670000.00,0.00,0.00,0.96,0.27,-0.08,0.06,0.08,0.14,-0.15,9.78
1447550827403660000.00,0.00,0.00,0.96,0.27,-0.07,0.06,0.07,0.13,-0.18,9.76
1447550827423630000.00,0.00,0.00,0.96,0.27,-0.07,0.05,0.07,0.11,-0.18,9.75
1447550827443690000.00,0.00,0.00,0.96,0.27,-0.07,0.04,0.08,0.08,-0.20,9.76
1447550827463630000.00,0.00,0.00,0.96,0.27,-0.06,0.03,0.08,0.07,-0.19,9.76
1447550827483630000.00,0.00,0.00,0.96,0.27,-0.07,0.03,0.07,0.10,-0.22,9.77
1447550827503660000.00,0.00,0.00,0.96,0.27,-0.08,0.02,0.08,0.13,-0.24,9.76
1447550827523600000.00,0.00,-0.01,0.96,0.27,-0.07,0.02,0.08,0.12,-0.27,9.78
1447550827543670000.00,0.00,-0.01,0.96,0.27,-0.07,0.01,0.08,0.11,-0.29,9.80
1447550827563620000.00,0.00,-0.01,0.96,0.27,-0.07,0.00,0.08,0.10,-0.32,9.80
1447550827583600000.00,0.00,-0.01,0.96,0.27,-0.07,0.00,0.08,0.10,-0.33,9.79
1447550827603660000.00,0.00,-0.01,0.96,0.27,-0.07,-0.02,0.08,0.07,-0.37,9.78
1447550827623630000.00,0.00,-0.01,0.96,0.27,-0.06,-0.01,0.09,0.03,-0.38,9.79
1447550827643670000.00,0.00,-0.01,0.96,0.27,-0.06,-0.01,0.08,-0.01,-0.40,9.79
1447550827663670000.00,0.00,-0.01,0.96,0.27,-0.06,-0.01,0.09,0.00,-0.44,9.82
1447550827683630000.00,0.00,-0.01,0.96,0.27,-0.06,-0.02,0.09,0.02,-0.45,9.81
1447550827703650000.00,0.00,-0.01,0.96,0.27,-0.05,-0.01,0.09,0.02,-0.46,9.83
1447550827723630000.00,-0.01,-0.01,0.96,0.27,-0.05,0.00,0.09,0.03,-0.47,9.85
1447550827743680000.00,-0.01,-0.01,0.96,0.26,-0.04,0.00,0.09,0.05,-0.49,9.84
1447550827763620000.00,-0.01,-0.01,0.96,0.26,-0.04,0.00,0.08,0.07,-0.50,9.84
1447550827783630000.00,-0.01,-0.01,0.96,0.26,-0.04,0.00,0.08,0.07,-0.52,9.83
1447550827803660000.00,-0.01,-0.01,0.96,0.26,-0.02,0.01,0.09,0.09,-0.55,9.83
1447550827823630000.00,-0.01,-0.01,0.96,0.26,-0.03,0.01,0.09,0.07,-0.56,9.82
1447550827843680000.00,-0.01,-0.01,0.97,0.26,-0.02,0.00,0.11,0.05,-0.56,9.81
1447550827863640000.00,-0.01,-0.01,0.97,0.26,-0.02,0.01,0.09,0.06,-0.56,9.81
1447550827883640000.00,-0.01,-0.01,0.97,0.26,-0.02,-0.01,0.09,0.05,-0.57,9.80
1447550827903650000.00,-0.01,-0.02,0.97,0.26,-0.01,-0.01,0.10,0.04,-0.54,9.82
1447550827923630000.00,-0.01,-0.02,0.97,0.26,-0.01,0.00,0.10,0.03,-0.55,9.80
1447550827943650000.00,-0.01,-0.02,0.97,0.26,0.00,-0.01,0.10,0.05,-0.57,9.79
1447550827963620000.00,-0.01,-0.02,0.97,0.26,0.00,-0.01,0.10,0.06,-0.57,9.78
1447550827983630000.00,-0.01,-0.02,0.97,0.26,0.00,-0.02,0.11,0.07,-0.58,9.79
1447550828003650000.00,-0.01,-0.02,0.97,0.26,0.00,-0.03,0.10,0.08,-0.60,9.79
1447550828023590000.00,-0.01,-0.02,0.97,0.25,0.00,-0.01,0.11,0.09,-0.60,9.80
1447550828043620000.00,0.00,-0.02,0.97,0.25,-0.01,-0.02,0.10,0.10,-0.60,9.82
1447550828063620000.00,0.00,-0.02,0.97,0.25,0.00,-0.02,0.10,0.14,-0.57,9.82
1447550828083590000.00,0.00,-0.02,0.97,0.25,-0.01,-0.01,0.11,0.17,-0.55,9.82
1447550828103640000.00,0.00,-0.02,0.97,0.25,-0.01,-0.02,0.10,0.19,-0.55,9.82
1447550828123620000.00,0.00,-0.02,0.97,0.25,-0.02,-0.02,0.10,0.21,-0.55,9.82
1447550828143620000.00,0.00,-0.02,0.97,0.25,-0.02,-0.02,0.11,0.22,-0.54,9.81
1447550828163620000.00,0.00,-0.02,0.97,0.25,-0.01,-0.01,0.09,0.21,-0.53,9.80
1447550828183620000.00,0.00,-0.02,0.97,0.25,-0.01,-0.02,0.10,0.21,-0.54,9.79
1447550828203650000.00,0.00,-0.02,0.97,0.25,0.00,-0.01,0.09,0.19,-0.54,9.78
1447550828223600000.00,0.00,-0.02,0.97,0.25,0.01,-0.02,0.09,0.18,-0.54,9.77
1447550828243620000.00,0.00,-0.02,0.97,0.25,0.02,-0.01,0.09,0.16,-0.53,9.77
1447550828263590000.00,0.00,-0.02,0.97,0.25,0.02,-0.02,0.09,0.17,-0.53,9.77
1447550828283630000.00,0.00,-0.02,0.97,0.25,0.03,-0.01,0.09,0.21,-0.51,9.77
1447550828303650000.00,0.00,-0.02,0.97,0.24,0.03,-0.02,0.09,0.25,-0.50,9.78
1447550828323630000.00,0.00,-0.02,0.97,0.24,0.03,-0.02,0.08,0.28,-0.49,9.78
1447550828343620000.00,0.00,-0.02,0.97,0.24,0.03,-0.02,0.07,0.28,-0.49,9.80
1447550828363610000.00,0.00,-0.02,0.97,0.24,0.04,-0.02,0.07,0.27,-0.50,9.79
1447550828383620000.00,0.00,-0.02,0.97,0.24,0.03,-0.01,0.07,0.25,-0.50,9.78
1447550828403650000.00,0.00,-0.02,0.97,0.24,0.03,-0.01,0.06,0.23,-0.50,9.77
1447550828423620000.00,0.00,-0.02,0.97,0.24,0.02,-0.01,0.07,0.19,-0.50,9.78
1447550828443620000.00,0.00,-0.02,0.97,0.24,0.02,-0.01,0.06,0.18,-0.50,9.78
1447550828463610000.00,0.00,-0.02,0.97,0.24,0.02,-0.01,0.06,0.19,-0.49,9.80
1447550828483620000.00,0.00,-0.02,0.97,0.24,0.01,-0.01,0.06,0.19,-0.51,9.79
1447550828503670000.00,0.00,-0.02,0.97,0.24,0.02,-0.01,0.06,0.22,-0.51,9.80
1447550828523640000.00,0.00,-0.02,0.97,0.24,0.01,-0.01,0.06,0.21,-0.53,9.81
1447550828543620000.00,0.00,-0.02,0.97,0.24,0.01,0.00,0.06,0.22,-0.53,9.82
1447550828563620000.00,0.00,-0.02,0.97,0.24,0.00,0.00,0.06,0.24,-0.53,9.82
1447550828583590000.00,0.00,-0.02,0.97,0.24,-0.01,0.00,0.06,0.23,-0.54,9.81
1447550828603650000.00,0.00,-0.02,0.97,0.24,-0.02,0.00,0.07,0.23,-0.57,9.81
1447550828623650000.00,0.00,-0.02,0.97,0.24,-0.03,0.01,0.07,0.25,-0.56,9.84
1447550828643620000.00,0.00,-0.02,0.97,0.24,-0.04,0.01,0.08,0.25,-0.58,9.84
1447550828663620000.00,0.00,-0.02,0.97,0.24,-0.04,0.01,0.08,0.27,-0.58,9.85
1447550828683620000.00,0.00,-0.02,0.97,0.24,-0.05,0.01,0.08,0.26,-0.59,9.86
1447550828703620000.00,0.00,-0.02,0.97,0.24,-0.05,0.01,0.09,0.23,-0.60,9.85
1447550828723680000.00,0.00,-0.02,0.97,0.24,-0.05,0.02,0.09,0.20,-0.62,9.84
1447550828743610000.00,0.00,-0.02,0.97,0.24,-0.06,0.02,0.09,0.20,-0.64,9.83
1447550828763610000.00,0.00,-0.02,0.97,0.23,-0.05,0.03,0.09,0.18,-0.64,9.82
1447550828783600000.00,0.00,-0.02,0.97,0.23,-0.05,0.03,0.09,0.19,-0.64,9.82
1447550828803640000.00,0.00,-0.02,0.97,0.23,-0.04,0.04,0.11,0.18,-0.66,9.82
1447550828823670000.00,0.00,-0.02,0.97,0.23,-0.04,0.04,0.11,0.20,-0.66,9.81
1447550828843620000.00,0.00,-0.02,0.97,0.23,-0.03,0.04,0.11,0.20,-0.68,9.80
1447550828863620000.00,0.00,-0.02,0.97,0.23,-0.03,0.04,0.11,0.20,-0.69,9.79
1447550828883620000.00,0.00,-0.02,0.97,0.23,-0.02,0.04,0.11,0.22,-0.70,9.78
1447550828903620000.00,-0.01,-0.02,0.97,0.23,-0.03,0.04,0.12,0.25,-0.71,9.77
1447550828923670000.00,-0.01,-0.02,0.97,0.23,-0.04,0.04,0.14,0.26,-0.72,9.75
1447550828943620000.00,-0.01,-0.02,0.97,0.23,-0.05,0.04,0.13,0.25,-0.69,9.72
1447550828963600000.00,-0.01,-0.02,0.97,0.23,-0.06,0.03,0.14,0.23,-0.69,9.71
1447550828983620000.00,-0.01,-0.02,0.97,0.22,-0.05,0.02,0.14,0.20,-0.69,9.69
1447550829003650000.00,-0.01,-0.03,0.97,0.22,-0.05,0.02,0.14,0.16,-0.68,9.67
1447550829023610000.00,-0.01,-0.03,0.97,0.22,-0.03,0.01,0.13,0.14,-0.70,9.67
1447550829043620000.00,-0.01,-0.03,0.97,0.22,-0.03,0.01,0.13,0.10,-0.70,9.66
1447550829063610000.00,-0.01,-0.03,0.98,0.22,-0.02,0.00,0.13,0.09,-0.71,9.68
1447550829083590000.00,-0.01,-0.03,0.98,0.22,0.00,0.00,0.13,0.07,-0.70,9.67
1447550829103610000.00,-0.01,-0.03,0.98,0.22,0.00,0.00,0.13,0.10,-0.71,9.67
1447550829123760000.00,-0.01,-0.03,0.98,0.22,0.02,0.00,0.12,0.11,-0.69,9.70
1447550829143800000.00,-0.01,-0.03,0.98,0.22,0.03,-0.01,0.12,0.14,-0.69,9.71
1447550829163590000.00,-0.01,-0.03,0.98,0.22,0.04,0.01,0.12,0.15,-0.67,9.73
1447550829183600000.00,-0.01,-0.03,0.98,0.22,0.06,0.01,0.10,0.16,-0.66,9.75
1447550829203620000.00,-0.01,-0.02,0.98,0.21,0.07,-0.01,0.11,0.17,-0.65,9.76
1447550829223630000.00,-0.01,-0.02,0.98,0.21,0.08,0.00,0.10,0.16,-0.66,9.75
1447550829243670000.00,-0.01,-0.02,0.98,0.21,0.11,0.01,0.09,0.15,-0.65,9.77
1447550829263620000.00,-0.01,-0.02,0.98,0.21,0.11,0.02,0.08,0.12,-0.63,9.77
1447550829283600000.00,-0.01,-0.02,0.98,0.21,0.12,0.01,0.08,0.09,-0.62,9.77
1447550829303640000.00,-0.01,-0.02,0.98,0.21,0.14,0.02,0.07,0.06,-0.61,9.79
1447550829323630000.00,-0.01,-0.02,0.98,0.21,0.15,0.03,0.07,0.03,-0.59,9.78
1447550829343600000.00,-0.01,-0.02,0.98,0.21,0.15,0.02,0.07,0.01,-0.56,9.79
1447550829363600000.00,-0.01,-0.02,0.98,0.21,0.16,0.04,0.06,-0.01,-0.52,9.78
1447550829383590000.00,-0.01,-0.01,0.98,0.21,0.16,0.04,0.05,-0.01,-0.49,9.79
1447550829403620000.00,-0.01,-0.01,0.98,0.21,0.17,0.04,0.05,0.00,-0.48,9.79
1447550829423630000.00,-0.01,-0.01,0.98,0.21,0.17,0.04,0.05,0.02,-0.47,9.80
1447550829443600000.00,-0.01,-0.01,0.98,0.21,0.16,0.03,0.03,0.05,-0.46,9.79
1447550829463600000.00,-0.01,-0.01,0.98,0.21,0.14,0.03,0.04,0.07,-0.43,9.83
1447550829483610000.00,-0.01,-0.01,0.98,0.21,0.13,0.03,0.02,0.11,-0.41,9.83
1447550829503650000.00,-0.01,-0.01,0.98,0.21,0.11,0.03,0.03,0.13,-0.41,9.84
1447550829523670000.00,-0.01,0.00,0.98,0.21,0.08,0.02,0.03,0.16,-0.42,9.85
1447550829543600000.00,-0.01,0.00,0.98,0.21,0.06,0.01,0.03,0.19,-0.41,9.85
1447550829563600000.00,-0.01,0.00,0.98,0.21,0.05,0.01,0.05,0.19,-0.39,9.85
1447550829583560000.00,-0.01,0.00,0.98,0.21,0.02,0.01,0.06,0.17,-0.38,9.87
1447550829603650000.00,-0.01,0.00,0.98,0.21,0.00,0.01,0.06,0.18,-0.37,9.87
1447550829623670000.00,-0.01,0.00,0.98,0.21,-0.04,0.01,0.06,0.17,-0.36,9.87
1447550829643600000.00,-0.01,0.00,0.98,0.21,-0.05,0.02,0.08,0.16,-0.34,9.87
1447550829663570000.00,-0.01,0.00,0.98,0.21,-0.06,0.02,0.07,0.16,-0.35,9.86
1447550829683590000.00,-0.01,-0.01,0.98,0.21,-0.07,0.02,0.08,0.18,-0.34,9.86
1447550829703640000.00,-0.01,-0.01,0.98,0.21,-0.08,0.01,0.08,0.16,-0.36,9.84
1447550829723640000.00,-0.01,-0.01,0.98,0.21,-0.08,0.02,0.09,0.14,-0.37,9.83
1447550829743800000.00,-0.01,-0.01,0.98,0.21,-0.09,0.01,0.08,0.13,-0.36,9.80
1447550829763770000.00,-0.01,-0.01,0.98,0.21,-0.08,0.01,0.09,0.12,-0.37,9.78
1447550829783800000.00,-0.01,-0.01,0.98,0.20,-0.09,0.01,0.09,0.10,-0.37,9.78
1447550829803760000.00,-0.01,-0.01,0.98,0.20,-0.08,0.01,0.09,0.12,-0.36,9.78
1447550829823770000.00,-0.01,-0.01,0.98,0.20,-0.09,0.00,0.09,0.12,-0.38,9.76
1447550829843730000.00,-0.01,-0.01,0.98,0.20,-0.08,0.00,0.08,0.15,-0.40,9.75
1447550829863710000.00,-0.01,-0.01,0.98,0.20,-0.08,0.00,0.08,0.15,-0.41,9.73
1447550829883730000.00,-0.01,-0.01,0.98,0.20,-0.08,-0.01,0.08,0.15,-0.44,9.73
1447550829903720000.00,-0.01,-0.01,0.98,0.20,-0.07,0.00,0.08,0.15,-0.47,9.72
1447550829923720000.00,-0.01,-0.02,0.98,0.20,-0.07,0.00,0.07,0.14,-0.47,9.71
1447550829943740000.00,-0.01,-0.02,0.98,0.20,-0.05,0.00,0.07,0.14,-0.49,9.72
1447550829963680000.00,-0.01,-0.02,0.98,0.20,-0.04,-0.01,0.07,0.12,-0.50,9.71
1447550829983730000.00,-0.01,-0.02,0.98,0.20,-0.04,0.01,0.06,0.10,-0.52,9.71
1447550830003720000.00,-0.01,-0.02,0.98,0.20,-0.03,0.01,0.06,0.07,-0.53,9.70
1447550830023720000.00,-0.01,-0.02,0.98,0.20,-0.02,0.01,0.06,0.06,-0.55,9.71
1447550830043740000.00,-0.01,-0.02,0.98,0.20,-0.02,0.02,0.05,0.05,-0.57,9.70
1447550830063700000.00,-0.01,-0.02,0.98,0.20,-0.02,0.01,0.04,0.06,-0.58,9.70
1447550830083700000.00,-0.01,-0.02,0.98,0.20,-0.02,0.02,0.04,0.08,-0.59,9.71
1447550830103720000.00,-0.01,-0.02,0.98,0.20,-0.02,0.01,0.03,0.06,-0.60,9.71
1447550830123790000.00,-0.01,-0.02,0.98,0.20,-0.01,0.01,0.03,0.07,-0.63,9.72
1447550830143740000.00,-0.01,-0.02,0.98,0.20,-0.01,0.02,0.03,0.06,-0.63,9.74
1447550830163720000.00,-0.01,-0.02,0.98,0.20,0.00,0.02,0.02,0.05,-0.63,9.75
1447550830183720000.00,-0.01,-0.02,0.98,0.20,-0.01,0.02,0.03,0.03,-0.63,9.77
1447550830203750000.00,-0.01,-0.02,0.98,0.20,0.00,0.02,0.01,0.01,-0.64,9.78
1447550830223640000.00,-0.01,-0.02,0.98,0.20,0.01,0.02,0.02,-0.02,-0.63,9.77
1447550830243720000.00,-0.01,-0.02,0.98,0.20,0.00,0.02,0.01,-0.03,-0.64,9.79
1447550830263720000.00,-0.01,-0.02,0.98,0.20,0.02,0.02,0.01,-0.03,-0.65,9.79
1447550830283730000.00,-0.01,-0.02,0.98,0.20,0.02,0.02,0.00,-0.04,-0.66,9.79
1447550830303750000.00,-0.01,-0.02,0.98,0.20,0.03,0.03,0.01,-0.03,-0.67,9.80
1447550830323730000.00,-0.01,-0.02,0.98,0.20,0.03,0.03,0.00,-0.02,-0.65,9.82
1447550830343730000.00,-0.01,-0.02,0.98,0.20,0.05,0.02,0.01,0.00,-0.64,9.83
1447550830363720000.00,-0.01,-0.02,0.98,0.20,0.07,0.03,0.00,0.01,-0.63,9.86
1447550830383730000.00,-0.01,-0.02,0.98,0.20,0.07,0.04,0.01,0.03,-0.62,9.89
1447550830403790000.00,-0.01,-0.02,0.98,0.20,0.08,0.05,0.00,0.05,-0.60,9.89
1447550830423720000.00,-0.01,-0.02,0.98,0.20,0.08,0.05,0.01,0.05,-0.58,9.88
1447550830443720000.00,-0.01,-0.01,0.98,0.20,0.09,0.05,0.01,0.03,-0.56,9.89
1447550830463710000.00,-0.01,-0.01,0.98,0.20,0.09,0.07,0.02,0.04,-0.57,9.89
1447550830483710000.00,-0.01,-0.01,0.98,0.20,0.10,0.06,0.02,0.03,-0.53,9.88
1447550830503760000.00,-0.01,-0.01,0.98,0.20,0.11,0.07,0.02,0.02,-0.52,9.86
1447550830523720000.00,-0.01,-0.01,0.98,0.20,0.11,0.07,0.02,0.02,-0.49,9.85
1447550830543730000.00,-0.01,-0.01,0.98,0.20,0.11,0.07,0.03,0.01,-0.46,9.82
1447550830563730000.00,-0.02,-0.01,0.98,0.20,0.12,0.07,0.03,0.01,-0.41,9.83
1447550830583690000.00,-0.02,-0.01,0.98,0.20,0.12,0.07,0.04,0.01,-0.41,9.82
1447550830603780000.00,-0.02,-0.01,0.98,0.20,0.11,0.06,0.04,0.03,-0.37,9.81
1447550830623740000.00,-0.02,0.00,0.98,0.20,0.11,0.06,0.04,0.01,-0.36,9.80
1447550830643710000.00,-0.02,0.00,0.98,0.20,0.10,0.06,0.03,0.02,-0.34,9.78
1447550830663730000.00,-0.02,0.00,0.98,0.20,0.09,0.05,0.05,0.04,-0.32,9.78
1447550830683710000.00,-0.02,0.00,0.98,0.20,0.09,0.05,0.05,0.03,-0.30,9.78
1447550830703760000.00,-0.02,0.00,0.98,0.20,0.09,0.05,0.05,0.03,-0.29,9.77
1447550830723750000.00,-0.02,0.00,0.98,0.20,0.06,0.03,0.05,0.01,-0.28,9.77
1447550830743720000.00,-0.02,0.00,0.98,0.20,0.06,0.03,0.05,0.01,-0.25,9.78
1447550830763730000.00,-0.02,0.00,0.98,0.20,0.06,0.02,0.05,0.01,-0.23,9.78
1447550830783730000.00,-0.02,0.00,0.98,0.20,0.05,0.03,0.04,0.02,-0.21,9.77
1447550830803760000.00,-0.02,0.00,0.98,0.20,0.04,0.01,0.04,0.03,-0.21,9.78
1447550830823760000.00,-0.02,0.00,0.98,0.20,0.04,0.01,0.04,0.01,-0.20,9.77
1447550830843730000.00,-0.02,0.00,0.98,0.20,0.04,0.01,0.04,-0.01,-0.19,9.78
1447550830863710000.00,-0.02,0.00,0.98,0.20,0.04,0.01,0.03,-0.04,-0.16,9.77
1447550830883710000.00,-0.02,0.00,0.98,0.20,0.04,0.00,0.03,-0.05,-0.15,9.77
1447550830903790000.00,-0.02,0.00,0.98,0.20,0.04,0.01,0.03,-0.09,-0.15,9.78
1447550830923760000.00,-0.02,0.00,0.98,0.20,0.04,0.01,0.02,-0.09,-0.15,9.77
1447550830943730000.00,-0.02,0.00,0.98,0.20,0.05,0.00,0.02,-0.11,-0.15,9.78
1447550830963730000.00,-0.02,0.00,0.98,0.20,0.05,-0.01,0.01,-0.10,-0.13,9.79
1447550830983710000.00,-0.02,0.01,0.98,0.20,0.05,0.01,0.02,-0.09,-0.15,9.77
1447550831003750000.00,-0.02,0.01,0.98,0.20,0.05,-0.01,0.02,-0.07,-0.13,9.78
1447550831023720000.00,-0.02,0.01,0.98,0.20,0.06,-0.01,0.02,-0.06,-0.14,9.77
1447550831043730000.00,-0.02,0.01,0.98,0.20,0.06,-0.01,0.02,-0.08,-0.13,9.79
1447550831063710000.00,-0.02,0.01,0.98,0.20,0.06,-0.01,0.03,-0.09,-0.13,9.79
1447550831083700000.00,-0.01,0.01,0.98,0.21,0.07,-0.01,0.02,-0.11,-0.13,9.79
1447550831103760000.00,-0.01,0.01,0.98,0.21,0.06,-0.02,0.03,-0.13,-0.11,9.78
1447550831123720000.00,-0.01,0.01,0.98,0.21,0.06,-0.01,0.02,-0.14,-0.10,9.77
1447550831143720000.00,-0.01,0.01,0.98,0.21,0.07,-0.02,0.02,-0.15,-0.10,9.78
1447550831163750000.00,-0.01,0.01,0.98,0.21,0.07,-0.03,0.02,-0.14,-0.09,9.80
1447550831183730000.00,-0.01,0.01,0.98,0.21,0.06,-0.02,0.02,-0.13,-0.08,9.81
1447550831203760000.00,-0.01,0.01,0.98,0.21,0.07,-0.02,0.02,-0.12,-0.07,9.81
1447550831223760000.00,-0.01,0.01,0.98,0.21,0.07,-0.02,0.03,-0.07,-0.06,9.82
1447550831243730000.00,-0.01,0.01,0.98,0.21,0.07,-0.02,0.02,-0.04,-0.04,9.83
1447550831263730000.00,-0.01,0.01,0.98,0.21,0.06,-0.03,0.02,-0.02,-0.03,9.84
1447550831283730000.00,-0.01,0.01,0.98,0.21,0.06,-0.03,0.02,0.00,-0.01,9.86
1447550831303740000.00,-0.01,0.01,0.98,0.21,0.06,-0.03,0.02,0.02,-0.01,9.85
1447550831323750000.00,-0.01,0.01,0.98,0.21,0.06,-0.02,0.02,0.02,0.00,9.84
1447550831343730000.00,-0.01,0.01,0.98,0.21,0.05,-0.02,0.03,0.03,0.01,9.83
1447550831363710000.00,-0.01,0.01,0.98,0.21,0.06,-0.02,0.02,0.02,0.02,9.83
1447550831383710000.00,-0.01,0.01,0.98,0.21,0.04,-0.02,0.04,0.03,0.03,9.84
1447550831403750000.00,-0.01,0.02,0.98,0.21,0.04,-0.02,0.03,0.05,0.04,9.84
1447550831423750000.00,-0.01,0.02,0.98,0.21,0.03,-0.01,0.03,0.06,0.05,9.84
1447550831443700000.00,-0.01,0.02,0.98,0.21,0.03,-0.01,0.03,0.06,0.07,9.83
1447550831463710000.00,-0.01,0.02,0.98,0.21,0.02,-0.01,0.04,0.09,0.08,9.84
1447550831483710000.00,-0.01,0.02,0.98,0.21,0.01,-0.02,0.04,0.06,0.08,9.83
1447550831503750000.00,-0.01,0.02,0.98,0.21,-0.01,0.00,0.04,0.06,0.06,9.82
1447550831523710000.00,-0.01,0.02,0.98,0.21,-0.01,0.00,0.04,0.04,0.06,9.81
1447550831543710000.00,-0.01,0.01,0.98,0.21,-0.01,0.00,0.05,0.04,0.06,9.80
1447550831563710000.00,-0.01,0.01,0.98,0.21,-0.02,0.00,0.05,0.03,0.06,9.80
1447550831583690000.00,-0.01,0.01,0.98,0.21,-0.02,0.00,0.06,0.05,0.06,9.80
1447550831603740000.00,-0.01,0.01,0.98,0.21,-0.02,0.00,0.06,0.06,0.04,9.78
1447550831623750000.00,-0.01,0.01,0.98,0.21,-0.03,0.01,0.07,0.07,0.04,9.79
1447550831643710000.00,-0.01,0.01,0.98,0.21,-0.03,0.01,0.06,0.09,0.03,9.78
1447550831663710000.00,-0.01,0.01,0.98,0.21,-0.03,0.00,0.06,0.11,0.04,9.80
1447550831683710000.00,-0.01,0.01,0.98,0.21,-0.04,0.01,0.06,0.13,0.03,9.80
1447550831703750000.00,-0.01,0.01,0.98,0.21,-0.03,0.01,0.06,0.13,0.03,9.78
1447550831723760000.00,-0.01,0.01,0.98,0.21,-0.03,0.00,0.07,0.12,0.04,9.78
1447550831743700000.00,-0.01,0.01,0.98,0.21,-0.02,0.01,0.06,0.11,0.03,9.78
1447550831763710000.00,-0.01,0.01,0.98,0.21,-0.03,0.00,0.06,0.10,0.04,9.79
1447550831783700000.00,-0.01,0.01,0.98,0.21,-0.03,-0.01,0.06,0.09,0.02,9.77
1447550831803750000.00,-0.01,0.01,0.98,0.21,-0.03,-0.01,0.06,0.09,0.02,9.78
1447550831823750000.00,-0.01,0.01,0.98,0.21,-0.03,-0.01,0.05,0.07,0.02,9.78
1447550831843730000.00,-0.01,0.01,0.98,0.21,-0.03,0.00,0.05,0.07,0.00,9.77
1447550831863720000.00,-0.01,0.01,0.98,0.21,-0.04,-0.02,0.05,0.06,0.00,9.79
1447550831883700000.00,-0.01,0.01,0.98,0.21,-0.04,-0.02,0.04,0.03,-0.01,9.78
1447550831903750000.00,-0.01,0.01,0.98,0.21,-0.05,0.00,0.05,0.04,-0.04,9.77
1447550831923750000.00,-0.01,0.01,0.98,0.21,-0.05,-0.02,0.05,0.04,-0.04,9.79
1447550831943700000.00,-0.01,0.01,0.98,0.21,-0.06,-0.02,0.05,0.06,-0.07,9.78
1447550831963700000.00,-0.01,0.01,0.98,0.20,-0.06,-0.01,0.06,0.09,-0.09,9.79
1447550831983720000.00,-0.01,0.01,0.98,0.20,-0.07,-0.01,0.04,0.11,-0.11,9.81
1447550832003780000.00,-0.01,0.00,0.98,0.20,-0.08,0.00,0.05,0.13,-0.15,9.82
1447550832023680000.00,-0.01,0.00,0.98,0.20,-0.09,0.00,0.04,0.16,-0.17,9.81
1447550832043700000.00,-0.01,0.00,0.98,0.20,-0.10,0.00,0.04,0.18,-0.20,9.82
1447550832063700000.00,-0.01,0.00,0.98,0.20,-0.12,-0.01,0.05,0.19,-0.23,9.83
1447550832083690000.00,-0.01,0.00,0.98,0.20,-0.12,0.00,0.05,0.18,-0.25,9.83
1447550832103750000.00,-0.01,0.00,0.98,0.20,-0.13,0.01,0.06,0.18,-0.29,9.84
1447550832123750000.00,-0.01,0.00,0.98,0.20,-0.14,0.01,0.06,0.17,-0.31,9.84
1447550832143700000.00,-0.01,0.00,0.98,0.20,-0.15,0.02,0.06,0.16,-0.35,9.84
1447550832163870000.00,-0.01,-0.01,0.98,0.20,-0.15,0.02,0.06,0.13,-0.39,9.82
1447550832183870000.00,-0.01,-0.01,0.98,0.20,-0.15,0.03,0.06,0.12,-0.43,9.81
1447550832203880000.00,-0.01,-0.01,0.98,0.20,-0.15,0.04,0.06,0.09,-0.45,9.79
1447550832223870000.00,-0.01,-0.01,0.98,0.20,-0.15,0.03,0.06,0.10,-0.48,9.79
1447550832243860000.00,-0.01,-0.01,0.98,0.20,-0.15,0.03,0.05,0.11,-0.51,9.80
1447550832263840000.00,-0.01,-0.01,0.98,0.20,-0.14,0.03,0.06,0.08,-0.55,9.80
1447550832283840000.00,-0.01,-0.01,0.98,0.20,-0.13,0.03,0.05,0.07,-0.57,9.79
1447550832303880000.00,-0.01,-0.02,0.98,0.20,-0.12,0.03,0.04,0.06,-0.60,9.78
1447550832323830000.00,-0.01,-0.02,0.98,0.20,-0.12,0.03,0.05,0.07,-0.63,9.80
1447550832343720000.00,-0.01,-0.02,0.98,0.20,-0.10,0.03,0.04,0.08,-0.65,9.79
1447550832363830000.00,-0.01,-0.02,0.98,0.20,-0.10,0.03,0.04,0.12,-0.69,9.80
1447550832383840000.00,-0.01,-0.02,0.98,0.20,-0.10,0.02,0.04,0.12,-0.68,9.80
1447550832403870000.00,-0.01,-0.02,0.98,0.20,-0.09,0.03,0.04,0.11,-0.69,9.81
1447550832423860000.00,-0.01,-0.02,0.98,0.20,-0.08,0.02,0.04,0.10,-0.67,9.81
1447550832443830000.00,-0.01,-0.02,0.98,0.20,-0.08,0.02,0.03,0.09,-0.68,9.80
1447550832463820000.00,-0.01,-0.02,0.98,0.20,-0.07,0.02,0.03,0.06,-0.69,9.80
1447550832483830000.00,-0.02,-0.02,0.98,0.20,-0.06,0.01,0.04,0.02,-0.69,9.79
1447550832503870000.00,-0.02,-0.02,0.98,0.20,-0.04,0.02,0.03,-0.02,-0.70,9.75
1447550832523830000.00,-0.02,-0.02,0.98,0.20,-0.04,0.00,0.03,-0.03,-0.70,9.75
1447550832543820000.00,-0.02,-0.02,0.98,0.20,-0.02,0.00,0.03,-0.04,-0.70,9.75
1447550832563730000.00,-0.02,-0.03,0.98,0.20,-0.01,-0.01,0.02,-0.05,-0.71,9.73
1447550832583700000.00,-0.02,-0.03,0.98,0.20,-0.01,-0.01,0.03,-0.06,-0.70,9.75
1447550832603740000.00,-0.02,-0.03,0.98,0.20,0.01,-0.02,0.02,-0.02,-0.69,9.75
1447550832623830000.00,-0.02,-0.03,0.98,0.20,0.02,-0.01,0.03,0.01,-0.68,9.77
1447550832643840000.00,-0.01,-0.03,0.98,0.20,0.02,-0.02,0.04,0.07,-0.66,9.79
1447550832663820000.00,-0.01,-0.02,0.98,0.20,0.03,-0.01,0.03,0.13,-0.63,9.80
1447550832683900000.00,-0.01,-0.02,0.98,0.20,0.03,0.00,0.04,0.16,-0.61,9.81
1447550832703870000.00,-0.01,-0.02,0.98,0.20,0.03,0.00,0.04,0.15,-0.61,9.80
1447550832723820000.00,-0.01,-0.02,0.98,0.20,0.03,-0.01,0.04,0.11,-0.60,9.77
1447550832743840000.00,-0.01,-0.02,0.98,0.20,0.03,0.00,0.04,0.06,-0.61,9.73
1447550832763820000.00,-0.01,-0.02,0.98,0.20,0.03,-0.01,0.05,0.03,-0.62,9.72
1447550832783820000.00,-0.01,-0.02,0.98,0.20,0.03,-0.01,0.05,0.00,-0.62,9.73
1447550832803870000.00,-0.01,-0.02,0.98,0.20,0.02,-0.01,0.05,0.02,-0.61,9.73
1447550832823720000.00,-0.01,-0.02,0.98,0.20,0.02,-0.02,0.05,0.04,-0.61,9.75
1447550832843840000.00,-0.01,-0.02,0.98,0.20,0.01,-0.01,0.06,0.05,-0.64,9.77
1447550832863840000.00,-0.01,-0.02,0.98,0.20,0.01,-0.02,0.05,0.04,-0.65,9.78
1447550832883820000.00,-0.01,-0.02,0.98,0.20,0.01,0.00,0.06,0.06,-0.68,9.78
1447550832903820000.00,-0.01,-0.02,0.98,0.20,0.01,0.00,0.05,0.08,-0.70,9.77
1447550832923850000.00,-0.01,-0.02,0.98,0.20,0.00,0.00,0.06,0.08,-0.72,9.78
1447550832943820000.00,-0.01,-0.02,0.98,0.20,0.00,0.02,0.06,0.06,-0.73,9.80
1447550832963820000.00,-0.01,-0.02,0.98,0.20,0.01,0.01,0.05,0.05,-0.75,9.80
1447550832983800000.00,-0.01,-0.02,0.98,0.20,0.00,0.02,0.06,0.05,-0.74,9.81
1447550833003820000.00,-0.01,-0.02,0.98,0.20,0.00,0.03,0.06,0.04,-0.74,9.81
1447550833023810000.00,-0.01,-0.02,0.98,0.20,0.01,0.04,0.05,0.05,-0.74,9.82
1447550833043840000.00,-0.01,-0.02,0.98,0.20,0.01,0.04,0.06,0.05,-0.74,9.81
1447550833063820000.00,-0.01,-0.02,0.98,0.20,0.01,0.04,0.06,0.06,-0.75,9.80
1447550833083810000.00,-0.01,-0.02,0.98,0.20,0.01,0.04,0.05,0.06,-0.74,9.80
1447550833103900000.00,-0.01,-0.02,0.98,0.20,0.02,0.03,0.05,0.04,-0.76,9.80
1447550833123820000.00,-0.01,-0.02,0.98,0.20,0.02,0.03,0.06,0.05,-0.75,9.78
1447550833143820000.00,-0.01,-0.02,0.98,0.20,0.01,0.03,0.06,0.04,-0.77,9.77
1447550833163820000.00,-0.02,-0.02,0.98,0.20,0.02,0.02,0.05,0.06,-0.76,9.76
1447550833183810000.00,-0.01,-0.02,0.98,0.20,0.03,0.01,0.06,0.10,-0.74,9.78
1447550833203860000.00,-0.01,-0.02,0.98,0.20,0.03,0.01,0.06,0.11,-0.74,9.79
1447550833223820000.00,-0.01,-0.02,0.98,0.20,0.04,0.00,0.06,0.12,-0.73,9.81
1447550833243840000.00,-0.01,-0.02,0.98,0.20,0.03,0.00,0.06,0.11,-0.71,9.79
1447550833263840000.00,-0.01,-0.02,0.98,0.20,0.04,-0.01,0.07,0.10,-0.68,9.78
1447550833283820000.00,-0.01,-0.02,0.98,0.20,0.05,-0.01,0.08,0.09,-0.68,9.78
1447550833303860000.00,-0.01,-0.02,0.98,0.20,0.04,-0.02,0.07,0.07,-0.66,9.78
1447550833323820000.00,-0.01,-0.02,0.98,0.20,0.04,-0.03,0.07,0.06,-0.65,9.78
1447550833343820000.00,-0.01,-0.02,0.98,0.20,0.05,-0.03,0.08,0.06,-0.62,9.79
1447550833363820000.00,-0.01,-0.02,0.98,0.20,0.05,-0.03,0.07,0.07,-0.60,9.78
1447550833383820000.00,-0.01,-0.02,0.98,0.20,0.04,-0.03,0.09,0.07,-0.58,9.78
1447550833403900000.00,-0.01,-0.02,0.98,0.20,0.04,-0.03,0.08,0.07,-0.57,9.78
1447550833423820000.00,-0.01,-0.02,0.98,0.20,0.04,-0.02,0.09,0.07,-0.56,9.79
1447550833443820000.00,-0.01,-0.02,0.98,0.20,0.04,-0.03,0.09,0.06,-0.54,9.80
1447550833463820000.00,-0.01,-0.02,0.98,0.20,0.04,-0.02,0.09,0.07,-0.53,9.79
1447550833483840000.00,-0.01,-0.02,0.98,0.20,0.03,-0.01,0.09,0.07,-0.51,9.80
1447550833503860000.00,-0.01,-0.02,0.98,0.20,0.03,-0.02,0.10,0.06,-0.51,9.77
1447550833523750000.00,-0.01,-0.02,0.98,0.20,0.03,-0.01,0.09,0.07,-0.49,9.80
1447550833543830000.00,-0.01,-0.02,0.98,0.19,0.04,0.00,0.09,0.04,-0.49,9.80
1447550833563830000.00,-0.01,-0.02,0.98,0.19,0.02,0.01,0.10,0.04,-0.50,9.79
1447550833583780000.00,-0.01,-0.02,0.98,0.19,0.02,0.00,0.10,0.05,-0.49,9.77
1447550833603890000.00,-0.01,-0.02,0.98,0.19,0.02,0.00,0.10,0.07,-0.47,9.78
1447550833623850000.00,-0.01,-0.02,0.98,0.19,0.02,0.01,0.10,0.06,-0.46,9.79
1447550833643830000.00,-0.01,-0.02,0.98,0.19,0.01,0.02,0.10,0.05,-0.46,9.79
1447550833663820000.00,-0.01,-0.02,0.98,0.19,0.00,0.03,0.10,0.04,-0.45,9.77
1447550833683830000.00,-0.01,-0.02,0.98,0.19,-0.01,0.03,0.11,0.05,-0.45,9.77
1447550833703860000.00,-0.01,-0.02,0.98,0.19,-0.02,0.02,0.10,0.05,-0.46,9.77
1447550833723830000.00,-0.01,-0.02,0.98,0.19,-0.04,0.03,0.10,0.04,-0.45,9.78
1447550833743830000.00,-0.01,-0.02,0.98,0.19,-0.03,0.03,0.11,0.06,-0.46,9.79
1447550833763860000.00,-0.01,-0.02,0.98,0.19,-0.04,0.02,0.11,0.05,-0.46,9.79
1447550833783860000.00,-0.01,-0.02,0.98,0.19,-0.05,0.03,0.11,0.05,-0.51,9.79
1447550833803890000.00,-0.01,-0.02,0.98,0.19,-0.05,0.03,0.11,0.03,-0.54,9.80
1447550833823850000.00,-0.01,-0.02,0.98,0.19,-0.06,0.04,0.11,0.02,-0.54,9.81
1447550833843870000.00,-0.01,-0.02,0.98,0.19,-0.06,0.05,0.11,0.03,-0.57,9.83
1447550833863880000.00,-0.01,-0.02,0.98,0.19,-0.07,0.04,0.11,0.04,-0.60,9.82
1447550833883890000.00,-0.01,-0.02,0.98,0.19,-0.07,0.05,0.12,0.01,-0.64,9.81
1447550833903890000.00,-0.02,-0.02,0.98,0.19,-0.07,0.06,0.12,0.01,-0.66,9.81
1447550833923890000.00,-0.02,-0.02,0.98,0.18,-0.07,0.05,0.12,0.00,-0.69,9.80
1447550833943840000.00,-0.02,-0.02,0.98,0.18,-0.06,0.06,0.12,-0.01,-0.69,9.78
1447550833963840000.00,-0.02,-0.02,0.98,0.18,-0.07,0.05,0.12,-0.02,-0.71,9.77
1447550833983890000.00,-0.02,-0.02,0.98,0.18,-0.07,0.04,0.11,-0.02,-0.74,9.76
1447550834003890000.00,-0.02,-0.02,0.98,0.18,-0.06,0.04,0.11,-0.04,-0.77,9.77
1447550834023770000.00,-0.02,-0.02,0.98,0.18,-0.07,0.04,0.11,-0.04,-0.79,9.77
1447550834043890000.00,-0.02,-0.03,0.98,0.18,-0.06,0.04,0.09,-0.07,-0.81,9.77
1447550834063900000.00,-0.02,-0.03,0.98,0.18,-0.06,0.03,0.10,-0.04,-0.84,9.75
1447550834083800000.00,-0.02,-0.03,0.98,0.18,-0.08,0.02,0.08,-0.01,-0.89,9.72
1447550834103840000.00,-0.02,-0.03,0.98,0.18,-0.09,0.02,0.09,0.02,-0.94,9.72
1447550834123840000.00,-0.02,-0.03,0.98,0.18,-0.11,0.01,0.09,0.02,-0.96,9.73
1447550834143890000.00,-0.02,-0.03,0.98,0.18,-0.10,0.01,0.09,0.06,-0.99,9.75
1447550834163890000.00,-0.02,-0.03,0.98,0.18,-0.12,-0.01,0.08,0.09,-1.01,9.74
1447550834183870000.00,-0.02,-0.03,0.98,0.18,-0.12,-0.03,0.09,0.11,-1.03,9.72
1447550834203860000.00,-0.02,-0.03,0.98,0.18,-0.11,-0.03,0.09,0.07,-1.06,9.72
1447550834223860000.00,-0.02,-0.04,0.98,0.17,-0.11,-0.05,0.08,0.04,-1.07,9.71
1447550834243880000.00,-0.02,-0.04,0.98,0.17,-0.11,-0.06,0.08,-0.01,-1.07,9.71
1447550834263890000.00,-0.02,-0.04,0.98,0.17,-0.10,-0.06,0.08,-0.02,-1.08,9.73
1447550834283890000.00,-0.02,-0.04,0.98,0.17,-0.10,-0.08,0.08,-0.01,-1.09,9.70
1447550834303890000.00,-0.02,-0.04,0.98,0.17,-0.08,-0.09,0.08,0.00,-1.08,9.73
1447550834323890000.00,-0.02,-0.04,0.98,0.17,-0.07,-0.08,0.08,0.01,-1.07,9.75
1447550834343890000.00,-0.02,-0.04,0.98,0.17,-0.04,-0.08,0.08,-0.01,-1.08,9.73
1447550834363880000.00,-0.02,-0.04,0.98,0.17,-0.02,-0.07,0.07,-0.01,-1.08,9.75
1447550834383860000.00,-0.02,-0.04,0.98,0.17,-0.02,-0.08,0.07,-0.02,-1.06,9.73
1447550834403880000.00,-0.01,-0.04,0.98,0.17,0.00,-0.07,0.08,-0.05,-1.04,9.71
1447550834423890000.00,-0.01,-0.04,0.98,0.17,0.00,-0.07,0.08,-0.09,-1.04,9.72
1447550834443890000.00,-0.01,-0.04,0.98,0.17,0.00,-0.08,0.07,-0.12,-1.01,9.71
1447550834463860000.00,-0.01,-0.04,0.98,0.17,0.00,-0.07,0.09,-0.12,-1.02,9.70
1447550834483890000.00,-0.01,-0.04,0.98,0.17,-0.01,-0.06,0.10,-0.11,-1.02,9.70
1447550834503890000.00,-0.01,-0.04,0.98,0.17,-0.03,-0.06,0.13,-0.10,-0.99,9.72
1447550834523870000.00,-0.01,-0.04,0.98,0.17,-0.04,-0.06,0.14,-0.06,-0.96,9.72
1447550834543890000.00,-0.01,-0.04,0.98,0.17,-0.04,-0.05,0.17,0.01,-0.96,9.72
1447550834564010000.00,-0.01,-0.05,0.99,0.17,-0.04,-0.04,0.20,0.09,-0.99,9.75
1447550834583880000.00,-0.01,-0.05,0.99,0.16,-0.06,-0.04,0.23,0.15,-1.01,9.74
1447550834603970000.00,-0.01,-0.05,0.99,0.16,-0.07,-0.04,0.26,0.20,-1.03,9.73
1447550834623940000.00,-0.01,-0.05,0.99,0.16,-0.07,-0.04,0.29,0.22,-1.05,9.72
1447550834643960000.00,-0.01,-0.05,0.99,0.16,-0.09,-0.04,0.32,0.26,-1.08,9.73
1447550834663940000.00,-0.01,-0.05,0.99,0.15,-0.10,-0.06,0.34,0.30,-1.10,9.71
1447550834684000000.00,-0.01,-0.05,0.99,0.15,-0.10,-0.05,0.39,0.32,-1.13,9.72
1447550834703980000.00,-0.01,-0.05,0.99,0.15,-0.10,-0.06,0.41,0.34,-1.17,9.74
1447550834723980000.00,-0.01,-0.05,0.99,0.14,-0.11,-0.06,0.44,0.37,-1.17,9.73
1447550834744010000.00,-0.01,-0.05,0.99,0.14,-0.11,-0.06,0.46,0.39,-1.19,9.70
1447550834763980000.00,-0.01,-0.06,0.99,0.13,-0.11,-0.07,0.49,0.40,-1.22,9.70
1447550834783980000.00,-0.01,-0.06,0.99,0.13,-0.12,-0.07,0.50,0.38,-1.27,9.69
1447550834803980000.00,-0.01,-0.06,0.99,0.13,-0.12,-0.07,0.52,0.32,-1.33,9.68
1447550834823980000.00,-0.01,-0.06,0.99,0.12,-0.13,-0.08,0.54,0.19,-1.34,9.64
1447550834843980000.00,-0.01,-0.06,0.99,0.11,-0.14,-0.08,0.56,0.07,-1.39,9.63
1447550834864010000.00,-0.01,-0.06,0.99,0.11,-0.14,-0.09,0.58,-0.03,-1.45,9.63
1447550834884010000.00,-0.01,-0.06,0.99,0.10,-0.13,-0.08,0.60,-0.14,-1.47,9.65
1447550834904010000.00,-0.01,-0.06,0.99,0.10,-0.12,-0.08,0.61,-0.20,-1.51,9.66
1447550834923980000.00,-0.01,-0.07,0.99,0.09,-0.09,-0.07,0.62,-0.22,-1.55,9.66
1447550834943980000.00,-0.01,-0.07,0.99,0.09,-0.06,-0.06,0.64,-0.21,-1.59,9.67
1447550834963980000.00,-0.01,-0.07,0.99,0.08,-0.02,-0.05,0.64,-0.18,-1.61,9.70
1447550834984010000.00,-0.01,-0.07,0.99,0.07,0.01,-0.05,0.65,-0.18,-1.63,9.69
1447550835004010000.00,-0.01,-0.07,1.00,0.07,0.05,-0.03,0.65,-0.13,-1.61,9.68
1447550835023870000.00,-0.01,-0.07,1.00,0.06,0.08,-0.03,0.65,-0.09,-1.56,9.68
1447550835043920000.00,-0.01,-0.07,1.00,0.06,0.11,-0.04,0.64,-0.08,-1.53,9.68
1447550835063930000.00,-0.01,-0.06,1.00,0.05,0.14,-0.04,0.64,-0.10,-1.47,9.68
1447550835083900000.00,-0.01,-0.06,1.00,0.04,0.18,-0.03,0.63,-0.13,-1.41,9.70
1447550835103930000.00,-0.01,-0.06,1.00,0.04,0.21,-0.03,0.62,-0.17,-1.36,9.69
1447550835123930000.00,-0.01,-0.06,1.00,0.03,0.25,-0.02,0.61,-0.16,-1.31,9.76
1447550835143790000.00,-0.01,-0.05,1.00,0.03,0.28,-0.02,0.60,-0.16,-1.24,9.73
1447550835163930000.00,-0.01,-0.05,1.00,0.02,0.32,-0.01,0.58,-0.10,-1.20,9.77
1447550835183930000.00,-0.01,-0.05,1.00,0.02,0.35,-0.01,0.57,-0.02,-1.17,9.78
1447550835203920000.00,-0.01,-0.04,1.00,0.01,0.38,0.00,0.55,0.02,-1.09,9.77
1447550835223930000.00,-0.01,-0.04,1.00,0.01,0.39,0.01,0.53,0.04,-0.99,9.74
1447550835243920000.00,-0.01,-0.04,1.00,0.00,0.39,0.01,0.52,0.13,-0.93,9.70
1447550835263920000.00,-0.01,-0.03,1.00,0.00,0.40,-0.01,0.51,0.20,-0.87,9.71
1447550835283940000.00,-0.01,-0.03,1.00,-0.01,0.39,-0.01,0.50,0.22,-0.81,9.72
1447550835303940000.00,-0.01,-0.03,1.00,-0.01,0.37,-0.02,0.48,0.23,-0.73,9.74
1447550835323930000.00,-0.01,-0.02,1.00,-0.02,0.35,-0.03,0.49,0.27,-0.67,9.71
1447550835343910000.00,-0.01,-0.02,1.00,-0.02,0.34,-0.05,0.47,0.33,-0.65,9.70
1447550835363930000.00,-0.01,-0.02,1.00,-0.03,0.31,-0.05,0.48,0.35,-0.58,9.72
1447550835383930000.00,-0.01,-0.01,1.00,-0.03,0.30,-0.06,0.48,0.33,-0.53,9.73
1447550835403930000.00,-0.01,-0.01,1.00,-0.04,0.27,-0.06,0.48,0.32,-0.53,9.82
